#time,accel_x,accel_y,accel_z
473.672418,-148.041188,-9178.553681,-919.314598
473.672740,-222.061783,-9104.533087,-1532.190996
473.673062,-296.082377,-9252.574275,-1455.581446
473.673385,-444.123565,-9326.594869,-1302.362347
473.673707,-444.123565,-9400.615463,-1762.019645
473.674029,-592.164754,-9770.718434,-1225.752797
473.674351,-592.164754,-9474.636058,-1762.019645
473.674673,-444.123565,-9474.636058,-1685.410096
473.674995,0.000000,-9252.574275,-1608.800546
473.675317,0.000000,-9252.574275,-1532.190996
473.675640,0.000000,-9178.553681,-1762.019645
473.675962,-444.123565,-8956.491898,-1455.581446
473.676284,-296.082377,-9400.615463,-1762.019645
473.676606,-592.164754,-9548.656652,-1762.019645
473.676928,-370.102971,-9548.656652,-1762.019645
473.677250,-444.123565,-9548.656652,-1838.629195
473.677573,-222.061783,-9400.615463,-2221.676944
473.677895,0.000000,-9474.636058,-1915.238745
473.678217,-370.102971,-9178.553681,-1838.629195
473.678539,-222.061783,-9474.636058,-1915.238745
473.678861,-296.082377,-9548.656652,-1991.848295
473.679183,-370.102971,-9770.718434,-2451.505594
473.679506,-444.123565,-9622.677246,-1838.629195
473.679828,-444.123565,-9474.636058,-1762.019645
473.680150,-222.061783,-9326.594869,-1685.410096
473.680472,0.000000,-9030.512492,-1762.019645
473.680794,-222.061783,-8808.450710,-1608.800546
473.681116,-296.082377,-8956.491898,-1685.410096
473.681439,-296.082377,-9252.574275,-1838.629195
473.681761,-518.144159,-9474.636058,-1608.800546
473.682083,-592.164754,-9696.697840,-1685.410096
473.682405,-518.144159,-9400.615463,-1762.019645
473.682727,-444.123565,-8956.491898,-1455.581446
473.683049,-222.061783,-9178.553681,-1455.581446
473.683371,-222.061783,-8956.491898,-1608.800546
473.683694,-222.061783,-9104.533087,-1378.971896
473.684016,-296.082377,-9326.594869,-1532.190996
473.684338,-222.061783,-9474.636058,-1685.410096
473.684660,-222.061783,-9474.636058,-1838.629195
473.684982,-518.144159,-9400.615463,-1455.581446
473.685304,-518.144159,-9474.636058,-1455.581446
473.685627,-370.102971,-9104.533087,-1455.581446
473.685949,-370.102971,-8586.388927,-1838.629195
473.686271,-296.082377,-8956.491898,-1608.800546
473.686593,-222.061783,-9400.615463,-1455.581446
473.686915,-370.102971,-9474.636058,-1378.971896
473.687237,-222.061783,-9474.636058,-1532.190996
473.687560,-296.082377,-9474.636058,-1608.800546
473.687882,-592.164754,-9178.553681,-1455.581446
473.688204,0.000000,-9474.636058,-1991.848295
473.688526,-296.082377,-9548.656652,-1532.190996
473.688848,-296.082377,-9474.636058,-1455.581446
473.689170,-518.144159,-9474.636058,-1608.800546
473.689492,-444.123565,-9696.697840,-1991.848295
473.689815,-518.144159,-9474.636058,-1225.752797
473.690137,-370.102971,-9548.656652,-1455.581446
473.690459,-370.102971,-9474.636058,-1225.752797
473.690781,296.082377,-9252.574275,-1608.800546
473.691103,1554.432478,-9770.718434,-1991.848295
473.691425,2664.741391,-9326.594869,-1072.533697
473.691748,2516.700203,-9326.594869,-383.047749
473.692070,1628.453072,-8956.491898,0.000000
473.692392,444.123565,-9104.533087,-1608.800546
473.692714,-592.164754,-9400.615463,-2298.286494
473.693036,-2146.597232,-9400.615463,-2068.457845
473.693358,-3108.864956,-9474.636058,-2374.896044
473.693681,-3775.050304,-9622.677246,-2528.115143
473.694003,-2442.679609,-9622.677246,-2757.943793
473.694325,74.020594,-10362.883188,-2604.724693
473.694647,2516.700203,-11103.089130,-1149.143247
473.694969,2738.761985,-10214.842000,229.828649
473.695291,2368.659014,-8660.409521,-153.219100
473.695613,2294.638420,-8142.265362,-995.924147
473.695936,2664.741391,-9252.574275,-2221.676944
473.696258,2442.679609,-9548.656652,-2221.676944
473.696580,1406.391290,-9030.512492,-536.266849
473.696902,-148.041188,-7105.977043,306.438199
473.697224,666.185348,-7476.080014,-1149.143247
473.697546,2368.659014,-9622.677246,-2451.505594
473.697869,1184.329507,-10214.842000,-1455.581446
473.698191,-1036.288319,-8956.491898,229.828649
473.698513,-1480.411884,-8438.347739,-1455.581446
473.698835,-370.102971,-8956.491898,-3907.087040
473.699157,370.102971,-9474.636058,-3140.991542
473.699479,518.144159,-10955.047942,-1302.362347
473.699802,1184.329507,-10807.006753,-1302.362347
473.700124,2442.679609,-9622.677246,-2451.505594
473.700446,3775.050304,-10362.883188,-1608.800546
473.700768,4589.276840,-11547.212695,-383.047749
473.701090,4219.173869,-10881.027347,-689.485948
473.701412,3034.844362,-8660.409521,-1762.019645
473.701734,2368.659014,-7328.038826,-612.876398
473.702057,2664.741391,-8290.306550,-1225.752797
473.702379,2072.576638,-8438.347739,-1378.971896
473.702701,1406.391290,-7772.162391,-1378.971896
473.703023,962.267725,-8734.430116,-1225.752797
473.703345,2220.617826,-10288.862594,-842.705048
473.703667,2664.741391,-10732.986159,-1302.362347
473.703990,2368.659014,-9622.677246,-1991.848295
473.704312,2368.659014,-9992.780217,-2221.676944
473.704634,3034.844362,-10214.842000,-1302.362347
473.704956,3182.885551,-9622.677246,-2145.067394
473.705278,2738.761985,-9326.594869,-3064.381992
473.705600,2368.659014,-10436.903782,-1915.238745
473.705923,2812.782580,-10436.903782,-919.314598
473.706245,2960.823768,-9622.677246,-1302.362347
473.706567,2516.700203,-9474.636058,-1991.848295
473.706889,2146.597232,-8956.491898,-766.095498
473.707211,1628.453072,-8290.306550,-612.876398
473.707533,370.102971,-7179.997637,-842.705048
473.707856,-444.123565,-7846.182985,-1915.238745
473.708178,-740.205942,-8808.450710,-1991.848295
473.708500,-666.185348,-10140.821405,-1149.143247
473.708822,-518.144159,-10732.986159,-612.876398
473.709144,-296.082377,-11547.212695,-766.095498
473.709466,592.164754,-11917.315666,-1455.581446
473.709788,1628.453072,-11399.171507,-459.657299
473.710111,1554.432478,-10510.924376,0.000000
473.710433,1776.494261,-9326.594869,-689.485948
473.710755,1480.411884,-8364.327145,-1378.971896
473.711077,1924.535449,-7846.182985,-1225.752797
473.711399,1850.514855,-7624.121203,-459.657299
473.711721,1554.432478,-7698.141797,-919.314598
473.712044,1702.473667,-7772.162391,-1225.752797
473.712366,2220.617826,-8068.244768,-842.705048
473.712688,1702.473667,-8364.327145,-842.705048
473.713010,1776.494261,-8142.265362,-2221.676944
473.713332,1628.453072,-7994.224174,-2757.943793
473.713654,1628.453072,-9030.512492,-2145.067394
473.713977,1480.411884,-9770.718434,-1302.362347
473.714299,1702.473667,-10362.883188,-1608.800546
473.714621,1332.370696,-10732.986159,-2145.067394
473.714943,1406.391290,-11547.212695,-1915.238745
473.715265,1480.411884,-11769.274478,-1378.971896
473.715587,1480.411884,-11103.089130,-1608.800546
473.715909,1998.556043,-10807.006753,-2068.457845
473.716232,2220.617826,-10140.821405,-1532.190996
473.716554,2516.700203,-9548.656652,-536.266849
473.716876,2960.823768,-8882.471304,-306.438199
473.717198,3552.988522,-8216.285956,-1072.533697
473.717520,4885.359217,-8216.285956,-1532.190996
473.717842,5625.565159,-8068.244768,-1915.238745
473.718165,5847.626942,-8068.244768,-1838.629195
473.718487,5181.441594,-8586.388927,-1915.238745
473.718809,4663.297435,-9474.636058,-2374.896044
473.719131,4219.173869,-10955.047942,-2604.724693
473.719453,2294.638420,-12139.377449,-2451.505594
473.719775,1036.288319,-12509.480420,-2604.724693
473.720098,0.000000,-12139.377449,-1915.238745
473.720420,0.000000,-11029.068536,-1072.533697
473.720742,-296.082377,-9326.594869,0.000000
473.721064,0.000000,-7328.038826,-153.219100
473.721386,-148.041188,-6069.688724,-689.485948
473.721708,518.144159,-5403.503377,-766.095498
473.722030,888.247130,-5329.482782,-995.924147
473.722353,1406.391290,-6217.729913,-766.095498
473.722675,1628.453072,-7698.141797,-1302.362347
473.722997,1258.350101,-8882.471304,-1685.410096
473.723319,592.164754,-10066.800811,-1532.190996
473.723641,296.082377,-11251.130318,-2221.676944
473.723963,0.000000,-11399.171507,-2987.772442
473.724286,-1036.288319,-10584.944971,-2451.505594
473.724608,-1554.432478,-10732.986159,-3217.601092
473.724930,-1702.473667,-11177.109724,-3064.381992
473.725252,-2146.597232,-11325.150913,-2451.505594
473.725574,-3034.844362,-11769.274478,-1225.752797
473.725896,-3552.988522,-11843.295072,-306.438199
473.726219,-3108.864956,-11177.109724,-153.219100
473.726541,-2886.803174,-10066.800811,0.000000
473.726863,-1776.494261,-8660.409521,153.219100
473.727185,-296.082377,-7105.977043,306.438199
473.727507,1924.535449,-5699.585753,0.000000
473.727829,3775.050304,-4737.318029,-612.876398
473.728151,6069.688724,-5107.421000,-459.657299
473.728474,6365.771101,-6143.709319,-1072.533697
473.728796,6513.812290,-7550.100608,-2451.505594
473.729118,6439.791695,-9992.780217,-3983.696590
473.729440,6143.709319,-12953.603985,-4519.963438
473.729762,5181.441594,-14137.933492,-3294.210641
473.730084,3256.906145,-13915.871710,-2068.457845
473.730407,962.267725,-12213.398043,-842.705048
473.730729,0.000000,-10584.944971,-1302.362347
473.731051,-1406.391290,-10584.944971,-2681.334243
473.731373,-3256.906145,-9992.780217,-1608.800546
473.731695,-5921.647536,-7550.100608,995.924147
473.732017,-6365.771101,-5255.462188,-76.609550
473.732340,-4441.235652,-6439.791695,-1685.410096
473.732662,-148.041188,-7994.224174,-1762.019645
473.732984,4145.153275,-7550.100608,-2911.162892
473.733306,7105.977043,-9474.636058,-2911.162892
473.733628,11177.109724,-11029.068536,0.000000
473.733950,13767.830521,-10732.986159,842.705048
473.734273,14952.160028,-9844.739029,-1608.800546
473.734595,14508.036463,-9178.553681,-2145.067394
473.734917,11621.233289,-8956.491898,-1991.848295
473.735239,7698.141797,-10066.800811,-1991.848295
473.735561,3256.906145,-10140.821405,-1149.143247
473.735883,-1110.308913,-11103.089130,-842.705048
473.736205,-3849.070898,-12953.603985,-1762.019645
473.736528,-5403.503377,-13693.809927,-306.438199
473.736850,-7772.162391,-11769.274478,2604.724693
473.737172,-9918.759623,-7476.080014,3677.258390
473.737494,-9400.615463,-2812.782580,995.924147
473.737816,-5773.606348,-2516.700203,-1838.629195
473.738138,-1110.308913,-3478.967927,-2298.286494
473.738461,2590.720797,-4441.235652,-3370.820191
473.738783,5921.647536,-7994.224174,-3600.648841
473.739105,9326.594869,-12213.398043,-1991.848295
473.739427,11399.171507,-13841.851115,-1608.800546
473.739749,10584.944971,-13767.830521,-2681.334243
473.740072,7846.182985,-12657.521608,-2987.772442
473.740394,3849.070898,-10955.047942,-5056.230287
473.740717,1480.411884,-10140.821405,-6971.469032
473.741039,-296.082377,-9622.677246,-5592.497135
473.741361,-2368.659014,-10066.800811,-2221.676944
473.741684,-6439.791695,-10955.047942,1455.581446
473.742006,-7402.059420,-10288.862594,4903.011187
473.742329,-7550.100608,-9178.553681,2987.772442
473.742651,-5551.544565,-7846.182985,-1378.971896
473.742973,-2368.659014,-9030.512492,-1455.581446
473.743296,2368.659014,-7920.203579,459.657299
473.743618,6809.894666,-4811.338623,536.266849
473.743940,10807.006753,-5625.565159,-1762.019645
473.744263,13027.624579,-9252.574275,-1225.752797
473.744585,11473.192101,-11177.109724,76.609550
473.744908,7105.977043,-11029.068536,-1378.971896
473.745230,2368.659014,-12583.501014,-6205.373534
473.745552,-1184.329507,-16358.551318,-7660.954980
473.745875,-3627.009116,-16876.695478,-5286.058936
473.746197,-7179.997637,-10807.006753,-1378.971896
473.746520,-10140.821405,-6217.729913,-1072.533697
473.746842,-8142.265362,-4589.276840,-3217.601092
473.747164,-3330.926739,-6365.771101,-2681.334243
473.747487,-1776.494261,-7846.182985,-1608.800546
473.747809,-2072.576638,-8586.388927,2528.115143
473.748131,-1480.411884,-8142.265362,4290.134789
473.748454,1776.494261,-6291.750507,766.095498
473.748776,5329.482782,-5551.544565,-689.485948
473.749099,5403.503377,-6513.812290,-1838.629195
473.749421,4219.173869,-7698.141797,-2834.553343
473.749743,4293.194464,-10510.924376,-2451.505594
473.750066,4737.318029,-11769.274478,-1072.533697
473.750388,5551.544565,-11843.295072,-2604.724693
473.750711,5699.585753,-12953.603985,-6205.373534
473.751033,4145.153275,-13101.645173,-4290.134789
473.751355,2220.617826,-12435.459826,153.219100
473.751678,-296.082377,-10807.006753,766.095498
473.752000,-1628.453072,-10288.862594,-1838.629195
473.752322,-2590.720797,-10214.842000,-1991.848295
473.752645,-3997.112087,-10732.986159,76.609550
473.752967,-3701.029710,-10066.800811,2451.505594
473.753290,-962.267725,-8068.244768,1915.238745
473.753612,2886.803174,-6217.729913,0.000000
473.753934,6291.750507,-4515.256246,919.314598
473.754257,6735.874072,-3849.070898,1915.238745
473.754579,5625.565159,-4589.276840,459.657299
473.754902,4663.297435,-6513.812290,-2911.162892
473.755224,3552.988522,-8290.306550,-4519.963438
473.755546,1258.350101,-9770.718434,-4366.744339
473.755869,-2590.720797,-10658.965565,-5056.230287
473.756191,-5181.441594,-13767.830521,-5209.449386
473.756514,-5699.585753,-14952.160028,-4443.353888
473.756836,-4367.215058,-14952.160028,-3447.429741
473.757158,-3997.112087,-12805.562797,-4060.306139
473.757481,-4367.215058,-11029.068536,-3753.867940
473.757803,-4145.153275,-9252.574275,-1608.800546
473.758125,-1480.411884,-9622.677246,1378.971896
473.758448,1998.556043,-9252.574275,1072.533697
473.758770,4663.297435,-8512.368333,-1838.629195
473.759093,5773.606348,-9178.553681,-689.485948
473.759415,4737.318029,-9918.759623,3983.696590
473.759737,3552.988522,-8216.285956,6128.763984
473.760060,3478.967927,-4589.276840,2757.943793
473.760382,4811.338623,-3923.091493,-2987.772442
473.760705,6365.771101,-7698.141797,-4979.620737
473.761027,5033.400406,-9326.594869,-1915.238745
473.761349,1776.494261,-9178.553681,1149.143247
473.761672,-814.226536,-9622.677246,383.047749
473.761994,-1554.432478,-11251.130318,-2681.334243
473.762316,-3256.906145,-10658.965565,-4903.011187
473.762639,-6883.915261,-9400.615463,-6281.983084
473.762961,-10658.965565,-9400.615463,-5362.668486
473.763284,-11177.109724,-11325.150913,-2298.286494
473.763606,-8068.244768,-11621.233289,-1991.848295
473.763928,-5181.441594,-10066.800811,-3064.381992
473.764251,-4441.235652,-8216.285956,-3217.601092
473.764573,-2516.700203,-8956.491898,-536.266849
473.764896,-518.144159,-8660.409521,1149.143247
473.765218,814.226536,-7031.956449,0.000000
473.765540,444.123565,-6143.709319,-2145.067394
473.765863,-370.102971,-7698.141797,-1225.752797
473.766185,-962.267725,-9696.697840,-612.876398
473.766507,-888.247130,-10362.883188,-383.047749
473.766830,666.185348,-9992.780217,-2757.943793
473.767152,3627.009116,-10214.842000,-3294.210641
473.767475,5625.565159,-10881.027347,-919.314598
473.767797,4663.297435,-9992.780217,1838.629195
473.768119,2590.720797,-9474.636058,1072.533697
473.768442,2368.659014,-9326.594869,-1608.800546
473.768764,1702.473667,-8734.430116,-3983.696590
473.769087,-1406.391290,-8512.368333,-4596.572988
473.769409,-4737.318029,-9770.718434,-3064.381992
473.769731,-7624.121203,-10214.842000,-842.705048
473.770054,-6439.791695,-10510.924376,-842.705048
473.770376,-3552.988522,-9992.780217,-3753.867940
473.770699,-1850.514855,-9844.739029,-6665.030833
473.771021,-1776.494261,-9252.574275,-3830.477490
473.771343,-2738.761985,-7031.956449,766.095498
473.771666,-2516.700203,-7105.977043,306.438199
473.771988,-296.082377,-8956.491898,-3830.477490
473.772310,518.144159,-9178.553681,-6741.640382
473.772633,-666.185348,-11769.274478,-5056.230287
473.772955,-1480.411884,-13767.830521,1378.971896
473.773278,-962.267725,-13545.768739,3677.258390
473.773600,2590.720797,-9622.677246,1838.629195
473.773922,6957.935855,-6365.771101,-1608.800546
473.774245,9696.697840,-5995.668130,-2068.457845
473.774567,10584.944971,-7624.121203,536.266849
473.774890,9548.656652,-6809.894666,4213.525239
473.775212,6809.894666,-4589.276840,4443.353888
473.775534,4441.235652,-6587.832884,995.924147
473.775857,1776.494261,-8882.471304,-2298.286494
473.776179,-2738.761985,-9548.656652,-3907.087040
473.776501,-6217.729913,-10140.821405,-2911.162892
473.776824,-5033.400406,-11769.274478,-3830.477490
473.777146,-2812.782580,-12731.542202,-4903.011187
473.777469,-1554.432478,-11251.130318,-3064.381992
473.777791,-3701.029710,-8438.347739,-919.314598
473.778113,-5551.544565,-8882.471304,-1532.190996
473.778436,-4293.194464,-11399.171507,-4060.306139
473.778758,-2812.782580,-12435.459826,-5362.668486
473.779081,-3923.091493,-12657.521608,-4979.620737
473.779403,-4737.318029,-12953.603985,-612.876398
473.779725,-3627.009116,-11843.295072,3217.601092
473.780048,-444.123565,-8808.450710,3294.210641
473.780370,3627.009116,-4515.256246,689.485948
473.780692,5921.647536,-2738.761985,-2604.724693
473.781015,6365.771101,-5181.441594,-2374.896044
473.781337,5699.585753,-8586.388927,3064.381992
473.781660,3923.091493,-8438.347739,4596.572988
473.781982,1332.370696,-7402.059420,153.219100
473.782304,0.000000,-9474.636058,-3753.867940
473.782627,-2516.700203,-10436.903782,-3983.696590
473.782949,-6291.750507,-10362.883188,-3447.429741
473.783272,-8734.430116,-10140.821405,-1838.629195
473.783594,-7179.997637,-11325.150913,-2451.505594
473.783916,-4663.297435,-11695.253884,-5056.230287
473.784239,-2368.659014,-11177.109724,-6511.811733
473.784561,-2812.782580,-10288.862594,-4136.915689
473.784883,-2886.803174,-11325.150913,-1149.143247
473.785206,-1258.350101,-11325.150913,153.219100
473.785528,-1702.473667,-9252.574275,-1455.581446
473.785851,-3627.009116,-8290.306550,-2987.772442
473.786173,-4885.359217,-8438.347739,-1838.629195
473.786495,-3552.988522,-8438.347739,0.000000
473.786818,74.020594,-7179.997637,-153.219100
473.787140,3256.906145,-5921.647536,-1991.848295
473.787463,5181.441594,-6883.915261,-1378.971896
473.787785,6069.688724,-8586.388927,2068.457845
473.788107,6217.729913,-9696.697840,3217.601092
473.788430,5107.421000,-9252.574275,-306.438199
473.788752,3997.112087,-9400.615463,-4366.744339
473.789075,2146.597232,-10362.883188,-3753.867940
473.789397,-962.267725,-11473.192101,-2221.676944
473.789719,-4145.153275,-11917.315666,-1225.752797
473.790042,-4515.256246,-11473.192101,-1072.533697
473.790364,-1924.535449,-9918.759623,-3064.381992
473.790686,370.102971,-9696.697840,-5515.887586
473.791009,-814.226536,-9770.718434,-4903.011187
473.791331,-2220.617826,-9548.656652,-459.657299
473.791654,-1628.453072,-8734.430116,1685.410096
473.791976,-296.082377,-6957.935855,-1532.190996
473.792298,-296.082377,-7550.100608,-5132.839837
473.792621,-1628.453072,-9178.553681,-3753.867940
473.792943,-2590.720797,-10658.965565,-766.095498
473.793266,-1998.556043,-11251.130318,1302.362347
473.793588,592.164754,-10362.883188,842.705048
473.793910,4219.173869,-8290.306550,-1532.190996
473.794233,6143.709319,-6513.812290,-1608.800546
473.794555,6513.812290,-6217.729913,-229.828649
473.794877,5551.544565,-8216.285956,0.000000
473.795200,5107.421000,-9918.759623,0.000000
473.795522,3775.050304,-8808.450710,0.000000
473.795845,962.267725,-8882.471304,-2068.457845
473.796167,-2886.803174,-10732.986159,-2528.115143
473.796489,-4959.379811,-11325.150913,-995.924147
473.796812,-4737.318029,-9696.697840,-536.266849
473.797134,-3627.009116,-7550.100608,-2987.772442
473.797457,-3478.967927,-7846.182985,-4443.353888
473.797779,-4219.173869,-9770.718434,-1915.238745
473.798101,-4515.256246,-10436.903782,153.219100
473.798424,-3849.070898,-10658.965565,-1762.019645
473.798746,-2886.803174,-10881.027347,-4366.744339
473.799068,-2960.823768,-10807.006753,-3753.867940
473.799391,-4737.318029,-10881.027347,-1149.143247
473.799713,-5181.441594,-10436.903782,1072.533697
473.800036,-3034.844362,-9400.615463,-306.438199
473.800358,1184.329507,-8290.306550,-3370.820191
473.800680,4145.153275,-7402.059420,-3600.648841
473.801003,3775.050304,-6735.874072,-612.876398
473.801325,1850.514855,-7772.162391,2604.724693
473.801648,1184.329507,-8512.368333,2911.162892
473.801970,1406.391290,-9104.533087,-536.266849
473.802292,0.000000,-8956.491898,-5056.230287
473.802615,-2960.823768,-9104.533087,-5439.278036
473.802937,-6217.729913,-9844.739029,-2451.505594
473.803260,-6513.812290,-9918.759623,306.438199
473.803582,-3775.050304,-9474.636058,-1532.190996
473.803904,-1110.308913,-9326.594869,-5592.497135
473.804227,-518.144159,-10584.944971,-4673.182538
473.804549,-666.185348,-12139.377449,-842.705048
473.804871,-888.247130,-12435.459826,1072.533697
473.805194,0.000000,-10510.924376,-766.095498
473.805516,444.123565,-8512.368333,-3217.601092
473.805839,0.000000,-8142.265362,-2298.286494
473.806161,-1702.473667,-8438.347739,76.609550
473.806483,-1924.535449,-8586.388927,1455.581446
473.806806,592.164754,-8438.347739,-766.095498
473.807128,4663.297435,-8808.450710,-2298.286494
473.807451,6365.771101,-9104.533087,-919.314598
473.807773,5773.606348,-8068.244768,2221.676944
473.808095,4071.132681,-7105.977043,2451.505594
473.808418,4071.132681,-7105.977043,-153.219100
473.808740,3701.029710,-7031.956449,-3064.381992
473.809062,1406.391290,-7402.059420,-5362.668486
473.809385,-2664.741391,-9622.677246,-4366.744339
473.809707,-5033.400406,-12213.398043,-2681.334243
473.810030,-4737.318029,-13249.686362,-1608.800546
473.810352,-2664.741391,-12731.542202,-4903.011187
473.810674,-962.267725,-11769.274478,-5975.544884
473.810997,-1850.514855,-10584.944971,-3140.991542
473.811319,-2738.761985,-9696.697840,0.000000
473.811642,-2442.679609,-9400.615463,229.828649
473.811964,0.000000,-8586.388927,-2681.334243
473.812286,1332.370696,-8142.265362,-5362.668486
473.812609,444.123565,-9030.512492,-3447.429741
473.812931,-1110.308913,-10955.047942,2604.724693
473.813253,-518.144159,-10732.986159,4826.401637
473.813576,2738.761985,-9474.636058,306.438199
473.813898,5625.565159,-8882.471304,-3294.210641
473.814221,5995.668130,-8438.347739,-2451.505594
473.814543,3997.112087,-6217.729913,1149.143247
473.814865,1924.535449,-5699.585753,2298.286494
473.815188,888.247130,-6809.894666,842.705048
473.815510,0.000000,-7698.141797,-2834.553343
473.815833,-2590.720797,-8882.471304,-5745.716235
473.816155,-6957.935855,-10510.924376,-4903.011187
473.816477,-9696.697840,-12583.501014,-2298.286494
473.816800,-9178.553681,-11843.295072,-1685.410096
473.817122,-6439.791695,-9918.759623,-4903.011187
473.817445,-4219.173869,-9622.677246,-7431.126331
473.817767,-3552.988522,-10658.965565,-4136.915689
473.818089,-3478.967927,-10436.903782,995.924147
473.818412,-2072.576638,-8882.471304,1685.410096
473.818734,0.000000,-8956.491898,-2374.896044
473.819056,592.164754,-9474.636058,-3983.696590
473.819379,-666.185348,-8660.409521,153.219100
473.819701,-1850.514855,-8216.285956,3447.429741
473.820024,0.000000,-7772.162391,1302.362347
473.820346,4219.173869,-8512.368333,-1915.238745
473.820668,7328.038826,-7624.121203,-1991.848295
473.820991,6439.791695,-6809.894666,1532.190996
473.821313,3552.988522,-7920.203579,3907.087040
473.821636,2960.823768,-9252.574275,2681.334243
473.821958,2368.659014,-8142.265362,-1608.800546
473.822280,296.082377,-8068.244768,-5669.106685
473.822603,-4515.256246,-10066.800811,-5209.449386
473.822925,-8364.327145,-12139.377449,-2145.067394
473.823247,-8956.491898,-12879.583391,-1915.238745
473.823570,-6513.812290,-10955.047942,-4366.744339
473.823892,-3997.112087,-10732.986159,-7048.078582
473.824215,-2960.823768,-11251.130318,-5745.716235
473.824537,-3404.947333,-11399.171507,-1149.143247
473.824859,-2738.761985,-10955.047942,766.095498
473.825182,0.000000,-9548.656652,-2298.286494
473.825504,2442.679609,-7846.182985,-5132.839837
473.825827,2738.761985,-8660.409521,-3600.648841
473.826149,1110.308913,-9400.615463,1762.019645
473.826471,296.082377,-9178.553681,3677.258390
473.826794,2886.803174,-8438.347739,1838.629195
473.827116,5847.626942,-7402.059420,-766.095498
473.827438,6957.935855,-7254.018232,-2145.067394
473.827761,5625.565159,-7994.224174,0.000000
473.828083,4737.318029,-7550.100608,2221.676944
473.828406,4293.194464,-6957.935855,1838.629195
473.828728,3627.009116,-7031.956449,-1072.533697
473.829050,1110.308913,-8586.388927,-3907.087040
473.829373,-3478.967927,-10881.027347,-4673.182538
473.829695,-7105.977043,-12657.521608,-2757.943793
473.830018,-7254.018232,-13027.624579,-1838.629195
473.830340,-4737.318029,-11621.233289,-4136.915689
473.830662,-2220.617826,-9548.656652,-6435.202183
473.830985,-1554.432478,-9548.656652,-4903.011187
473.831307,-814.226536,-9696.697840,-766.095498
473.831629,148.041188,-9696.697840,383.047749
473.831952,1110.308913,-8734.430116,-1532.190996
473.832274,1258.350101,-8068.244768,-3140.991542
473.832597,0.000000,-9474.636058,-2068.457845
473.832919,-1850.514855,-9844.739029,1838.629195
473.833241,-1924.535449,-8956.491898,2987.772442
473.833564,1628.453072,-6883.915261,-536.266849
473.833886,5033.400406,-6365.771101,-2757.943793
473.834209,6587.832884,-6883.915261,-995.924147
473.834531,4515.256246,-6883.915261,2528.115143
473.834853,2368.659014,-8512.368333,2834.553343
473.835176,1406.391290,-9696.697840,0.000000
473.835498,814.226536,-10066.800811,-3753.867940
473.835821,-2664.741391,-9918.759623,-5669.106685
473.836143,-7254.018232,-10436.903782,-4519.963438
473.836465,-9474.636058,-11843.295072,-2298.286494
473.836788,-7920.203579,-12657.521608,-3064.381992
473.837110,-4145.153275,-11177.109724,-6665.030833
473.837432,-2738.761985,-10658.965565,-5975.544884
473.837755,-3256.906145,-10066.800811,-3294.210641
473.838077,-3256.906145,-11843.295072,-536.266849
473.838400,-2294.638420,-11769.274478,0.000000
473.838722,-962.267725,-9400.615463,-2451.505594
473.839044,-222.061783,-8364.327145,-4366.744339
473.839367,-814.226536,-8364.327145,-1991.848295
473.839692,-962.267725,-8216.285956,3294.210641
473.840014,1184.329507,-6291.750507,2757.943793
473.840336,4737.318029,-7179.997637,-842.705048
473.840659,7254.018232,-8142.265362,-995.924147
473.840981,5921.647536,-6957.935855,1532.190996
473.841303,2960.823768,-7328.038826,2681.334243
473.841626,1554.432478,-8438.347739,1915.238745
473.841948,1776.494261,-8290.306550,-995.924147
473.842270,962.267725,-7254.018232,-5056.230287
473.842593,-2072.576638,-9178.553681,-5209.449386
473.842915,-6143.709319,-11991.336260,-1838.629195
473.843237,-7920.203579,-12361.439231,-536.266849
473.843560,-6143.709319,-11251.130318,-3140.991542
473.843882,-3849.070898,-10881.027347,-6511.811733
473.844205,-3108.864956,-9918.759623,-6818.249932
473.844527,-3478.967927,-9844.739029,-2911.162892
473.844849,-2442.679609,-10362.883188,766.095498
473.845172,148.041188,-9474.636058,-153.219100
473.845494,3034.844362,-8882.471304,-4290.134789
473.845816,3849.070898,-9992.780217,-4060.306139
473.846139,2442.679609,-10955.047942,0.000000
473.846461,1258.350101,-11103.089130,4366.744339
473.846783,2664.741391,-8512.368333,4060.306139
473.847106,6291.750507,-5255.462188,-306.438199
473.847428,8290.306550,-5181.441594,-3370.820191
473.847750,7624.121203,-7328.038826,-689.485948
473.848073,5699.585753,-7476.080014,3753.867940
473.848395,2664.741391,-7254.018232,2681.334243
473.848717,1628.453072,-8808.450710,-842.705048
473.849040,-666.185348,-10288.862594,-4443.353888
473.849362,-4515.256246,-11547.212695,-5669.106685
473.849684,-8364.327145,-12435.459826,-4060.306139
473.850007,-9696.697840,-12657.521608,-2757.943793
473.850329,-7402.059420,-11399.171507,-4213.525239
473.850651,-3923.091493,-9622.677246,-6741.640382
473.850974,-3552.988522,-8734.430116,-6128.763984
473.851296,-4071.132681,-10807.006753,-3140.991542
473.851619,-2960.823768,-12287.418637,-1532.190996
473.851941,-1110.308913,-11251.130318,-3064.381992
473.852263,74.020594,-10066.800811,-4519.963438
473.852586,0.000000,-9918.759623,-1838.629195
473.852908,-1110.308913,-9474.636058,2834.553343
473.853230,-518.144159,-7105.977043,4673.182538
473.853553,2590.720797,-4663.297435,153.219100
473.853875,6513.812290,-4885.359217,-4136.915689
473.854197,7920.203579,-6439.791695,-1608.800546
473.854520,5551.544565,-6291.750507,3370.820191
473.854842,1924.535449,-7254.018232,4903.011187
473.855164,1110.308913,-9918.759623,1378.971896
473.855487,1258.350101,-10881.027347,-3064.381992
473.855809,-296.082377,-9844.739029,-5975.544884
473.856131,-4071.132681,-10510.924376,-4673.182538
473.856454,-6513.812290,-12287.418637,-1072.533697
473.856776,-6735.874072,-11103.089130,383.047749
473.857098,-6291.750507,-8734.430116,-3830.477490
473.857421,-5403.503377,-9252.574275,-7814.174080
473.857743,-5255.462188,-12213.398043,-7048.078582
473.858065,-5107.421000,-12213.398043,-3524.039291
473.858388,-4589.276840,-10362.883188,-306.438199
473.858710,-1332.370696,-9474.636058,-1455.581446
473.859033,2368.659014,-9326.594869,-4060.306139
473.859355,3404.947333,-10066.800811,-2528.115143
473.859677,2294.638420,-9104.533087,2604.724693
473.860000,2220.617826,-7624.121203,2757.943793
473.860322,5033.400406,-7328.038826,-383.047749
473.860644,7550.100608,-7105.977043,-612.876398
473.860967,7624.121203,-6587.832884,459.657299
473.861289,6365.771101,-7328.038826,1225.752797
473.861611,5847.626942,-8216.285956,2298.286494
473.861934,4811.338623,-7772.162391,1072.533697
473.862256,3627.009116,-8882.471304,-2451.505594
473.862578,592.164754,-10807.006753,-4136.915689
473.862901,-3849.070898,-12065.356855,-2604.724693
473.863223,-7698.141797,-11769.274478,-536.266849
473.863545,-7698.141797,-10288.862594,-2221.676944
473.863868,-6439.791695,-9474.636058,-5898.935335
473.864190,-5477.523971,-8586.388927,-7967.393179
473.864512,-5255.462188,-11029.068536,-4749.792088
473.864835,-3849.070898,-12287.418637,-1685.410096
473.865157,-1036.288319,-11843.295072,-2145.067394
473.865479,2442.679609,-11695.253884,-4979.620737
473.865802,3552.988522,-11251.130318,-3600.648841
473.866124,2146.597232,-10732.986159,1149.143247
473.866447,-592.164754,-8216.285956,3907.087040
473.866769,-888.247130,-5625.565159,3294.210641
473.867091,1406.391290,-4663.297435,-1378.971896
473.867414,3997.112087,-4663.297435,-4213.525239
473.867736,4737.318029,-5921.647536,-995.924147
473.868058,3997.112087,-6365.771101,3217.601092
473.868381,3701.029710,-7105.977043,4290.134789
473.868703,3923.091493,-9104.533087,1838.629195
473.869025,1406.391290,-9992.780217,-2145.067394
473.869348,-3034.844362,-11029.068536,-3753.867940
473.869670,-7994.224174,-11843.295072,-4366.744339
473.869992,-9844.739029,-13027.624579,-3447.429741
473.870315,-8956.491898,-11399.171507,-4443.353888
473.870637,-6365.771101,-10214.842000,-6665.030833
473.870959,-5033.400406,-9844.739029,-6205.373534
473.871282,-4663.297435,-11991.336260,-2987.772442
473.871604,-2960.823768,-11621.233289,-2374.896044
473.871926,-1036.288319,-10510.924376,-3983.696590
473.872249,666.185348,-10955.047942,-5362.668486
473.872571,1406.391290,-11399.171507,-2374.896044
473.872893,962.267725,-9918.759623,1532.190996
473.873216,888.247130,-7105.977043,3830.477490
473.873538,3182.885551,-4737.318029,2681.334243
473.873861,5773.606348,-3997.112087,-919.314598
473.874183,7105.977043,-4959.379811,-1225.752797
473.874505,6217.729913,-5847.626942,1991.848295
473.874828,4589.276840,-6957.935855,2911.162892
473.875150,4219.173869,-8142.265362,1608.800546
473.875472,3775.050304,-8734.430116,-459.657299
473.875795,1406.391290,-10362.883188,-3753.867940
473.876117,-2738.761985,-12879.583391,-3830.477490
473.876439,-7402.059420,-13027.624579,-1762.019645
473.876762,-9844.739029,-11029.068536,-1378.971896
473.877084,-8586.388927,-9474.636058,-4979.620737
473.877406,-5033.400406,-11473.192101,-8963.317327
473.877729,-3849.070898,-11251.130318,-6665.030833
473.878051,-3108.864956,-11843.295072,-2528.115143
473.878373,-962.267725,-11473.192101,-995.924147
473.878696,2072.576638,-11621.233289,-2374.896044
473.879018,4589.276840,-11621.233289,-3140.991542
473.879340,3478.967927,-9474.636058,-2221.676944
473.879663,1776.494261,-8660.409521,1072.533697
473.879985,2146.597232,-7254.018232,3524.039291
473.880307,4071.132681,-5773.606348,1762.019645
473.880630,5995.668130,-4219.173869,-306.438199
473.880952,6587.832884,-4515.256246,229.828649
473.881275,4959.379811,-5625.565159,2298.286494
473.881597,4145.153275,-7179.997637,2451.505594
473.881919,3478.967927,-8068.244768,383.047749
473.882242,2146.597232,-9474.636058,-1762.019645
473.882564,-962.267725,-11103.089130,-2911.162892
473.882886,-5255.462188,-12805.562797,-1915.238745
473.883209,-8660.409521,-13767.830521,-1225.752797
473.883531,-9770.718434,-12065.356855,-3447.429741
473.883853,-9030.512492,-9992.780217,-6358.592633
473.884176,-6735.874072,-10436.903782,-8044.002729
473.884498,-5255.462188,-10584.944971,-4826.401637
473.884820,-4515.256246,-11621.233289,-2298.286494
473.885143,-2812.782580,-10732.986159,-2145.067394
473.885465,-370.102971,-10510.924376,-3753.867940
473.885787,1258.350101,-10584.944971,-3830.477490
473.886110,148.041188,-9844.739029,-1378.971896
473.886432,-1110.308913,-8364.327145,1838.629195
473.886754,0.000000,-6291.750507,2604.724693
473.887077,3034.844362,-6069.688724,842.705048
473.887399,5921.647536,-5107.421000,-1149.143247
473.887721,6439.791695,-5477.523971,-459.657299
473.888044,5995.668130,-7179.997637,1838.629195
473.888366,5107.421000,-7994.224174,3370.820191
473.888688,4441.235652,-9252.574275,919.314598
473.889011,2368.659014,-10436.903782,-2374.896044
473.889333,-1406.391290,-10436.903782,-3447.429741
473.889656,-5773.606348,-11399.171507,-2528.115143
473.889978,-7920.203579,-12435.459826,-2451.505594
473.890300,-7920.203579,-11621.233289,-4366.744339
473.890623,-7624.121203,-9622.677246,-6741.640382
473.890945,-6957.935855,-10214.842000,-5056.230287
473.891267,-6217.729913,-11177.109724,-2451.505594
473.891590,-4959.379811,-11177.109724,-1838.629195
473.891912,-2368.659014,-9844.739029,-3753.867940
473.892234,666.185348,-9474.636058,-5898.935335
473.892557,2146.597232,-11103.089130,-3600.648841
473.892879,1554.432478,-10658.965565,1608.800546
473.893201,740.205942,-7846.182985,3064.381992
473.893524,2664.741391,-5773.606348,1072.533697
473.893846,6513.812290,-6513.812290,-919.314598
473.894168,8290.306550,-6587.832884,-612.876398
473.894491,7328.038826,-6143.709319,766.095498
473.894813,5847.626942,-6069.688724,3140.991542
473.895135,6069.688724,-7328.038826,3217.601092
473.895458,5551.544565,-7550.100608,306.438199
473.895780,1702.473667,-8808.450710,-3830.477490
473.896102,-3552.988522,-12213.398043,-3524.039291
473.896425,-7920.203579,-12583.501014,-1302.362347
473.896747,-8660.409521,-11991.336260,-1378.971896
473.897070,-6587.832884,-11103.089130,-3907.087040
473.897392,-4515.256246,-11473.192101,-6665.030833
473.897714,-3108.864956,-11177.109724,-4673.182538
473.898037,-3108.864956,-10362.883188,-766.095498
473.898359,-2960.823768,-10362.883188,-383.047749
473.898681,-1332.370696,-10140.821405,-3064.381992
473.899004,0.000000,-9992.780217,-6281.983084
473.899326,-1110.308913,-10658.965565,-3753.867940
473.899648,-2368.659014,-10881.027347,1608.800546
473.899971,-1258.350101,-9104.533087,3447.429741
473.900293,1554.432478,-6291.750507,612.876398
473.900615,5255.462188,-5181.441594,-1378.971896
473.900938,6291.750507,-5181.441594,-1149.143247
473.901260,5033.400406,-6069.688724,1072.533697
473.901582,3627.009116,-6513.812290,2451.505594
473.901905,2442.679609,-6513.812290,536.266849
473.902227,2146.597232,-8586.388927,-2987.772442
473.902549,0.000000,-11399.171507,-4749.792088
473.902872,-4515.256246,-13175.665768,-2604.724693
473.903194,-8216.285956,-13101.645173,0.000000
473.903516,-7179.997637,-11547.212695,-1608.800546
473.903839,-4811.338623,-11029.068536,-5898.935335
473.904161,-4293.194464,-10362.883188,-6665.030833
473.904484,-4885.359217,-9622.677246,-3140.991542
473.904806,-4737.318029,-9918.759623,-1072.533697
473.905128,-3182.885551,-9400.615463,-1762.019645
473.905451,-1258.350101,-9770.718434,-4519.963438
473.905773,-1036.288319,-10584.944971,-4443.353888
473.906095,-2516.700203,-10584.944971,-689.485948
473.906418,-2960.823768,-10066.800811,2145.067394
473.906740,-740.205942,-8660.409521,1225.752797
473.907062,3552.988522,-7402.059420,-2221.676944
473.907385,6217.729913,-6217.729913,-2451.505594
473.907707,6069.688724,-4737.318029,536.266849
473.908029,5329.482782,-5255.462188,2298.286494
473.908352,5551.544565,-7031.956449,1455.581446
473.908674,5995.668130,-8808.450710,-689.485948
473.908996,3627.009116,-9474.636058,-2834.553343
473.909319,-222.061783,-12065.356855,-4136.915689
473.909641,-3849.070898,-14359.995275,-1608.800546
473.909963,-6217.729913,-11991.336260,842.705048
473.910286,-6143.709319,-8290.306550,-2451.505594
473.910608,-5255.462188,-7846.182985,-7277.907231
473.910930,-3330.926739,-10510.924376,-6894.859482
473.911253,-3404.947333,-10288.862594,-3217.601092
473.911575,-2738.761985,-11251.130318,-1455.581446
473.911898,-740.205942,-11399.171507,-1991.848295
473.912220,2368.659014,-12879.583391,-3140.991542
473.912542,2368.659014,-11843.295072,-3524.039291
473.912865,222.061783,-10584.944971,459.657299
473.913187,-962.267725,-9178.553681,2987.772442
473.913509,666.185348,-6883.915261,689.485948
473.913832,4441.235652,-5107.421000,-1838.629195
473.914154,5403.503377,-4293.194464,-1072.533697
473.914476,4219.173869,-4959.379811,995.924147
473.914799,2960.823768,-6735.874072,2757.943793
473.915121,2590.720797,-8586.388927,2681.334243
473.915443,2442.679609,-8438.347739,-612.876398
473.915766,148.041188,-9548.656652,-3830.477490
473.916088,-3552.988522,-11547.212695,-3447.429741
473.916410,-7105.977043,-12139.377449,-459.657299
473.916733,-8142.265362,-10732.986159,-766.095498
473.917055,-7031.956449,-9696.697840,-4443.353888
473.917377,-5181.441594,-11251.130318,-6435.202183
473.917700,-4219.173869,-12509.480420,-4903.011187
473.918022,-3997.112087,-12287.418637,-1455.581446
473.918344,-2738.761985,-11473.192101,-919.314598
473.918667,222.061783,-11177.109724,-2528.115143
473.918989,2738.761985,-11399.171507,-3753.867940
473.919312,2072.576638,-9548.656652,-1455.581446
473.919634,0.000000,-8438.347739,2681.334243
473.919956,-518.144159,-6957.935855,2911.162892
473.920279,1924.535449,-6217.729913,0.000000
473.920601,4959.379811,-5995.668130,-1915.238745
473.920923,5699.585753,-5477.523971,-612.876398
473.921246,4737.318029,-6143.709319,1685.410096
473.921568,3849.070898,-6735.874072,3294.210641
473.921890,3627.009116,-7179.997637,1302.362347
473.922213,2812.782580,-8956.491898,-3140.991542
473.922535,-148.041188,-11251.130318,-5822.325785
473.922857,-4367.215058,-13397.727550,-3370.820191
473.923180,-7772.162391,-13249.686362,-1302.362347
473.923502,-8438.347739,-10510.924376,-1762.019645
473.923824,-7105.977043,-9252.574275,-5898.935335
473.924147,-5625.565159,-9696.697840,-7354.516781
473.924469,-5625.565159,-11621.233289,-4136.915689
473.924791,-4441.235652,-11621.233289,-1378.971896
473.925114,-2442.679609,-10214.842000,-2451.505594
473.925436,740.205942,-9844.739029,-4673.182538
473.925758,2368.659014,-10288.862594,-3524.039291
473.926081,1184.329507,-9844.739029,-306.438199
473.926403,-296.082377,-8586.388927,2528.115143
473.926725,0.000000,-7179.997637,1608.800546
473.927048,2886.803174,-6291.750507,-1532.190996
473.927370,5255.462188,-5773.606348,-2834.553343
473.927693,5181.441594,-5625.565159,-306.438199
473.928015,4959.379811,-7254.018232,1762.019645
473.928337,5477.523971,-9104.533087,1762.019645
473.928660,6069.688724,-9548.656652,-459.657299
473.928982,4367.215058,-9918.759623,-2987.772442
473.929304,814.226536,-11917.315666,-3753.867940
473.929627,-3627.009116,-14211.954086,-2068.457845
473.929949,-7105.977043,-11621.233289,-536.266849
473.930271,-8068.244768,-8438.347739,-3600.648841
473.930594,-6957.935855,-8660.409521,-7584.345430
473.930916,-4663.297435,-10732.986159,-6818.249932
473.931238,-3627.009116,-11251.130318,-2451.505594
473.931561,-2960.823768,-10362.883188,-919.314598
473.931883,-444.123565,-10510.924376,-2221.676944
473.932205,1924.535449,-11695.253884,-3294.210641
473.932528,1702.473667,-10955.047942,-2374.896044
473.932850,-1036.288319,-8734.430116,995.924147
473.933172,-2960.823768,-7328.038826,1991.848295
473.933495,-1110.308913,-6439.791695,1072.533697
473.933817,2368.659014,-5551.544565,-1838.629195
473.934139,4737.318029,-5329.482782,-2298.286494
473.934462,4811.338623,-6291.750507,1225.752797
473.934784,4441.235652,-8068.244768,4060.306139
473.935107,4441.235652,-8956.491898,3294.210641
473.935429,3775.050304,-9252.574275,-153.219100
473.935751,1554.432478,-9474.636058,-2834.553343
473.936074,-2072.576638,-10288.862594,-2757.943793
473.936396,-4959.379811,-10362.883188,-1378.971896
473.936718,-6883.915261,-9918.759623,-1378.971896
473.937041,-6291.750507,-9696.697840,-4060.306139
473.937363,-4811.338623,-9992.780217,-5822.325785
473.937685,-4219.173869,-11325.150913,-3753.867940
473.938008,-4515.256246,-11325.150913,-1072.533697
473.938330,-4441.235652,-11177.109724,-1378.971896
473.938652,-1850.514855,-10584.944971,-3370.820191
473.938975,296.082377,-10288.862594,-5132.839837
473.939297,666.185348,-10881.027347,-2834.553343
473.939620,-296.082377,-9918.759623,2221.676944
473.939942,296.082377,-8142.265362,2681.334243
473.940265,3108.864956,-5921.647536,306.438199
473.940587,6661.853478,-6439.791695,-1532.190996
473.940910,8068.244768,-7624.121203,-612.876398
473.941232,6439.791695,-8216.285956,1378.971896
473.941555,4811.338623,-7105.977043,3140.991542
473.941877,3849.070898,-7179.997637,1455.581446
473.942200,2664.741391,-7846.182985,-2528.115143
473.942522,148.041188,-9548.656652,-4749.792088
473.942845,-4219.173869,-11621.233289,-3600.648841
473.943168,-7254.018232,-11843.295072,-1225.752797
473.943490,-8142.265362,-10955.047942,-1685.410096
473.943813,-7105.977043,-11325.150913,-5056.230287
473.944135,-5773.606348,-11695.253884,-6741.640382
473.944458,-4959.379811,-11399.171507,-4519.963438
473.944780,-4515.256246,-9474.636058,-2834.553343
473.945103,-2146.597232,-8882.471304,-2451.505594
473.945425,148.041188,-9474.636058,-3830.477490
473.945748,1480.411884,-10066.800811,-4443.353888
473.946070,666.185348,-10955.047942,-1608.800546
473.946393,-444.123565,-10807.006753,2068.457845
473.946715,888.247130,-8808.450710,1838.629195
473.947038,3552.988522,-6661.853478,-1225.752797
473.947361,5329.482782,-5403.503377,-1225.752797
473.947683,5699.585753,-5625.565159,76.609550
473.948006,5551.544565,-6365.771101,2221.676944
473.948328,5329.482782,-6587.832884,2681.334243
473.948651,4737.318029,-6513.812290,153.219100
473.948973,2738.761985,-8734.430116,-2911.162892
473.949296,-814.226536,-11399.171507,-3064.381992
473.949618,-4663.297435,-13027.624579,-842.705048
473.949941,-6587.832884,-12361.439231,-612.876398
473.950263,-5847.626942,-9992.780217,-3370.820191
473.950586,-3701.029710,-9178.553681,-6281.983084
473.950909,-2294.638420,-9178.553681,-5132.839837
473.951231,-2516.700203,-10140.821405,-1991.848295
473.951554,-3478.967927,-10436.903782,0.000000
473.951876,-3256.906145,-9400.615463,-1378.971896
473.952199,-2368.659014,-9474.636058,-5745.716235
473.952521,-2368.659014,-11029.068536,-5822.325785
473.952844,-3108.864956,-12139.377449,-1838.629195
473.953166,-3256.906145,-10362.883188,1685.410096
473.953489,-370.102971,-7624.121203,1378.971896
473.953811,4145.153275,-6439.791695,-995.924147
473.954134,6291.750507,-6661.853478,-1225.752797
473.954456,4737.318029,-7179.997637,766.095498
473.954779,2960.823768,-8068.244768,2604.724693
473.955102,2738.761985,-8808.450710,1302.362347
473.955424,3478.967927,-8586.388927,-2068.457845
473.955747,2368.659014,-8660.409521,-3217.601092
473.956069,-148.041188,-10066.800811,-1838.629195
473.956392,-2220.617826,-10955.047942,-229.828649
473.956714,-2146.597232,-10955.047942,-306.438199
473.957037,-1332.370696,-9400.615463,-2528.115143
473.957359,-1184.329507,-9696.697840,-4519.963438
473.957682,-2590.720797,-11103.089130,-3983.696590
473.958004,-4071.132681,-11325.150913,-1149.143247
473.958327,-4145.153275,-9770.718434,-1378.971896
473.958650,-1924.535449,-9030.512492,-3600.648841
473.958972,0.000000,-9992.780217,-5056.230287
473.959295,-592.164754,-10658.965565,-2451.505594
473.959617,-2072.576638,-11325.150913,1838.629195
473.959940,-1702.473667,-10510.924376,3294.210641
473.960262,666.185348,-8808.450710,0.000000
473.960585,3849.070898,-6809.894666,-2834.553343
473.960907,4737.318029,-6217.729913,-1608.800546
473.961230,3997.112087,-5255.462188,1225.752797
473.961552,3256.906145,-5329.482782,3140.991542
473.961875,3478.967927,-6069.688724,1455.581446
473.962197,3256.906145,-8216.285956,-2451.505594
473.962520,814.226536,-10584.944971,-4443.353888
473.962843,-2738.761985,-13101.645173,-3600.648841
473.963165,-5625.565159,-13249.686362,-1149.143247
473.963488,-5847.626942,-11103.089130,-1685.410096
473.963810,-3478.967927,-9474.636058,-5132.839837
473.964133,-2368.659014,-9400.615463,-6971.469032
473.964455,-2664.741391,-9770.718434,-4366.744339
473.964778,-3775.050304,-10288.862594,-1455.581446
473.965100,-3182.885551,-10658.965565,-2068.457845
473.965423,-814.226536,-11473.192101,-4060.306139
473.965745,1036.288319,-12065.356855,-4673.182538
473.966068,-222.061783,-10955.047942,-1378.971896
473.966390,-1776.494261,-10214.842000,2987.772442
473.966713,-1258.350101,-7698.141797,2911.162892
473.967036,1702.473667,-5921.647536,-1072.533697
473.967358,3701.029710,-5921.647536,-3217.601092
473.967681,3627.009116,-5995.668130,-842.705048
473.968003,2516.700203,-7105.977043,1762.019645
473.968326,2368.659014,-8586.388927,1762.019645
473.968648,3182.885551,-9104.533087,-689.485948
473.968971,2368.659014,-9400.615463,-3140.991542
473.969293,-962.267725,-9474.636058,-3217.601092
473.969616,-4885.359217,-11029.068536,-2298.286494
473.969938,-6883.915261,-11103.089130,-1838.629195
473.970261,-6439.791695,-10140.821405,-4290.134789
473.970584,-4737.318029,-10362.883188,-6358.592633
473.970906,-3256.906145,-11695.253884,-5056.230287
473.971229,-3552.988522,-11917.315666,0.000000
473.971551,-3108.864956,-10436.903782,1149.143247
473.971874,-1924.535449,-9030.512492,-995.924147
473.972196,0.000000,-8142.265362,-3524.039291
473.972519,222.061783,-8438.347739,-3983.696590
473.972841,-1184.329507,-8438.347739,-459.657299
473.973164,-2590.720797,-8956.491898,2528.115143
473.973486,-666.185348,-7698.141797,2451.505594
473.973809,3108.864956,-7476.080014,-1532.190996
473.974131,5847.626942,-8808.450710,-2221.676944
473.974454,6291.750507,-8808.450710,995.924147
473.974777,5551.544565,-8734.430116,2451.505594
473.975099,5181.441594,-8216.285956,1608.800546
473.975422,5773.606348,-7698.141797,-383.047749
473.975744,4071.132681,-8512.368333,-4060.306139
473.976067,222.061783,-10510.924376,-3907.087040
473.976389,-3330.926739,-12879.583391,-919.314598
473.976712,-5107.421000,-11769.274478,153.219100
473.977034,-3552.988522,-9770.718434,-2451.505594
473.977357,-1850.514855,-9104.533087,-4596.572988
473.977679,-1554.432478,-9326.594869,-2757.943793
473.978002,-2516.700203,-8586.388927,0.000000
473.978325,-3478.967927,-7624.121203,-153.219100
473.978647,-2368.659014,-8290.306550,-2987.772442
473.978970,-1184.329507,-8956.491898,-5132.839837
473.979292,-1850.514855,-10732.986159,-4519.963438
473.979615,-2960.823768,-12287.418637,0.000000
473.979937,-2368.659014,-11991.336260,2145.067394
473.980260,814.226536,-9622.677246,229.828649
473.980582,3923.091493,-7476.080014,-2145.067394
473.980905,5255.462188,-7105.977043,-2145.067394
473.981227,4663.297435,-7846.182985,0.000000
473.981550,4145.153275,-7994.224174,1378.971896
473.981872,3923.091493,-8142.265362,153.219100
473.982195,3552.988522,-7698.141797,-2145.067394
473.982518,1702.473667,-8438.347739,-3370.820191
473.982840,-1480.411884,-10288.862594,-1762.019645
473.983163,-4219.173869,-11843.295072,76.609550
473.983485,-4737.318029,-10955.047942,-995.924147
473.983808,-3701.029710,-10140.821405,-3983.696590
473.984130,-2294.638420,-9548.656652,-4979.620737
473.984453,-2442.679609,-9474.636058,-2987.772442
473.984775,-3478.967927,-9252.574275,-1149.143247
473.985098,-4219.173869,-9252.574275,-995.924147
473.985420,-2886.803174,-9918.759623,-3524.039291
473.985743,-1628.453072,-10732.986159,-6052.154434
473.986065,-2664.741391,-12139.377449,-4749.792088
473.986388,-3627.009116,-12361.439231,-689.485948
473.986711,-2442.679609,-10214.842000,1608.800546
473.987033,444.123565,-7698.141797,-306.438199
473.987356,3775.050304,-6809.894666,-2987.772442
473.987678,4811.338623,-6809.894666,-2451.505594
473.988001,4145.153275,-7254.018232,153.219100
473.988323,3108.864956,-7254.018232,1762.019645
473.988646,3478.967927,-8068.244768,76.609550
473.988968,3182.885551,-8956.491898,-2604.724693
473.989291,1406.391290,-10288.862594,-3753.867940
473.989613,-1850.514855,-11029.068536,-1915.238745
473.989936,-4219.173869,-10658.965565,0.000000
473.990259,-3923.091493,-9474.636058,-1225.752797
473.990581,-2072.576638,-9326.594869,-4519.963438
473.990904,-814.226536,-9622.677246,-4366.744339
473.991226,-2146.597232,-9252.574275,-1302.362347
473.991549,-2886.803174,-8734.430116,383.047749
473.991871,-1850.514855,-9400.615463,-842.705048
473.992194,-148.041188,-9770.718434,-4443.353888
473.992516,-592.164754,-11029.068536,-4443.353888
473.992839,-2738.761985,-11991.336260,-995.924147
473.993161,-3552.988522,-11177.109724,2298.286494
473.993484,-666.185348,-8586.388927,689.485948
473.993806,3404.947333,-6513.812290,-3140.991542
473.994129,5329.482782,-5921.647536,-2221.676944
473.994452,4367.215058,-6143.709319,612.876398
473.994774,2516.700203,-7105.977043,1838.629195
473.995097,2516.700203,-7698.141797,842.705048
473.995419,2664.741391,-8216.285956,-2681.334243
473.995742,1258.350101,-9844.739029,-4749.792088
473.996064,-2294.638420,-11843.295072,-2834.553343
473.996387,-5255.462188,-12731.542202,612.876398
473.996709,-5107.421000,-11843.295072,536.266849
473.997032,-2960.823768,-9474.636058,-2145.067394
473.997354,-1850.514855,-7920.203579,-5209.449386
473.997677,-2516.700203,-8142.265362,-4060.306139
473.998000,-3404.947333,-8956.491898,-1455.581446
473.998322,-2812.782580,-9400.615463,-459.657299
473.998645,-888.247130,-9992.780217,-2834.553343
473.998967,148.041188,-11029.068536,-4749.792088
473.999290,-1776.494261,-11695.253884,-2528.115143
473.999612,-3775.050304,-11843.295072,919.314598
473.999935,-3552.988522,-10732.986159,1685.410096
474.000257,-1184.329507,-8808.450710,-1072.533697
474.000580,1776.494261,-6883.915261,-3677.258390
474.000902,2220.617826,-5255.462188,-1608.800546
474.001225,1628.453072,-5551.544565,76.609550
474.001547,1702.473667,-7698.141797,919.314598
474.001870,2442.679609,-9400.615463,76.609550
474.002193,2516.700203,-9178.553681,-2298.286494
474.002515,666.185348,-9992.780217,-4290.134789
474.002838,-1628.453072,-11843.295072,-2451.505594
474.003160,-2812.782580,-12361.439231,-153.219100
474.003483,-2072.576638,-10658.965565,-766.095498
474.003805,-370.102971,-9474.636058,-2834.553343
474.004128,1110.308913,-8586.388927,-4366.744339
474.004450,148.041188,-8364.327145,-2757.943793
474.004773,-1110.308913,-9178.553681,-229.828649
474.005095,-1110.308913,-9770.718434,-383.047749
474.005418,0.000000,-9918.759623,-3753.867940
474.005740,814.226536,-10807.006753,-5056.230287
474.006063,-444.123565,-11325.150913,-1838.629195
474.006386,-1850.514855,-10658.965565,1915.238745
474.006708,-1110.308913,-8956.491898,1685.410096
474.007031,1406.391290,-7179.997637,-1225.752797
474.007353,3701.029710,-6217.729913,-2528.115143
474.007676,3923.091493,-6587.832884,-1072.533697
474.007998,2664.741391,-7179.997637,919.314598
474.008321,1850.514855,-8068.244768,919.314598
474.008643,2368.659014,-8660.409521,-612.876398
474.008966,2294.638420,-9326.594869,-3447.429741
474.009288,370.102971,-10436.903782,-4443.353888
474.009611,-3182.885551,-12139.377449,-2221.676944
474.009934,-5181.441594,-11843.295072,229.828649
474.010256,-4441.235652,-10140.821405,-1302.362347
474.010579,-2516.700203,-9178.553681,-4443.353888
474.010901,-1406.391290,-9030.512492,-4673.182538
474.011224,-2220.617826,-9326.594869,-2221.676944
474.011546,-2294.638420,-9696.697840,0.000000
474.011869,-1036.288319,-9252.574275,-919.314598
474.012191,222.061783,-9844.739029,-3907.087040
474.012514,-222.061783,-11917.315666,-3447.429741
474.012836,-2368.659014,-12657.521608,0.000000
474.013159,-4219.173869,-10510.924376,2145.067394
474.013481,-2960.823768,-7698.141797,842.705048
474.013804,518.144159,-5699.585753,-2757.943793
474.014127,3182.885551,-5699.585753,-3983.696590
474.014449,3256.906145,-6217.729913,-995.924147
474.014772,2294.638420,-6883.915261,1302.362347
474.015094,2072.576638,-8808.450710,919.314598
474.015417,2220.617826,-9844.739029,-1378.971896
474.015739,0.000000,-10288.862594,-3907.087040
474.016062,-3923.091493,-10955.047942,-3983.696590
474.016384,-6883.915261,-11473.192101,-2681.334243
474.016707,-6957.935855,-10658.965565,-2374.896044
474.017029,-4367.215058,-9770.718434,-4673.182538
474.017352,-1184.329507,-9178.553681,-4673.182538
474.017675,-1110.308913,-9030.512492,-2834.553343
474.017997,-1998.556043,-9474.636058,689.485948
474.018320,-2368.659014,-9770.718434,2145.067394
474.018642,-2146.597232,-9030.512492,-1915.238745
474.018965,-1406.391290,-8956.491898,-5132.839837
474.019287,-888.247130,-10140.821405,-3907.087040
474.019610,-1110.308913,-9918.759623,-919.314598
474.019932,-1480.411884,-8808.450710,2604.724693
474.020255,1332.370696,-8142.265362,1455.581446
474.020577,4811.338623,-7772.162391,-995.924147
474.020900,6439.791695,-7179.997637,-1838.629195
474.021222,5255.462188,-7402.059420,-612.876398
474.021545,3775.050304,-8882.471304,383.047749
474.021868,3552.988522,-9474.636058,-306.438199
474.022190,2886.803174,-8438.347739,-2145.067394
474.022513,888.247130,-9252.574275,-4136.915689
474.022835,-2146.597232,-10807.006753,-2834.553343
474.023158,-4219.173869,-10584.944971,-306.438199
474.023480,-3404.947333,-10584.944971,-1762.019645
474.023803,-2072.576638,-11325.150913,-3447.429741
474.024125,-1036.288319,-11843.295072,-3447.429741
474.024448,-2146.597232,-9992.780217,-1225.752797
474.024770,-3182.885551,-6883.915261,842.705048
474.025093,-2590.720797,-5773.606348,-1762.019645
474.025415,-592.164754,-7994.224174,-4519.963438
474.025738,888.247130,-10140.821405,-4673.182538
474.026061,-222.061783,-11399.171507,-2451.505594
474.026383,-1480.411884,-13027.624579,766.095498
474.026706,-296.082377,-13175.665768,2911.162892
474.027028,3034.844362,-9992.780217,-153.219100
474.027351,5477.523971,-7402.059420,-4060.306139
474.027673,5181.441594,-6439.791695,-1991.848295
474.027996,2886.803174,-6809.894666,1762.019645
474.028318,1554.432478,-7328.038826,1838.629195
474.028641,1998.556043,-7994.224174,-1072.533697
474.028963,2368.659014,-9622.677246,-3753.867940
474.029286,592.164754,-11177.109724,-4366.744339
474.029609,-2442.679609,-12435.459826,-689.485948
474.029931,-4811.338623,-11991.336260,3064.381992
474.030254,-4663.297435,-10140.821405,383.047749
474.030576,-3552.988522,-7698.141797,-3983.696590
474.030899,-3404.947333,-7328.038826,-5286.058936
474.031221,-4293.194464,-7994.224174,-3524.039291
474.031544,-5033.400406,-8290.306550,-1225.752797
474.031866,-4515.256246,-8734.430116,-1149.143247
474.032189,-3256.906145,-9992.780217,-2528.115143
474.032511,-2812.782580,-12287.418637,-2987.772442
474.032834,-4145.153275,-13101.645173,-1378.971896
474.033156,-5329.482782,-10807.006753,229.828649
474.033479,-3849.070898,-7772.162391,-995.924147
474.033802,-222.061783,-6069.688724,-2757.943793
474.034124,2664.741391,-5033.400406,-2374.896044
474.034447,4071.132681,-5403.503377,-995.924147
474.034769,3997.112087,-7105.977043,76.609550
474.035092,3997.112087,-9696.697840,536.266849
474.035414,3849.070898,-10658.965565,-842.705048
474.035737,1702.473667,-10658.965565,-3677.258390
474.036059,-1258.350101,-11251.130318,-3294.210641
474.036382,-3627.009116,-10658.965565,-1378.971896
474.036704,-4219.173869,-9326.594869,-1762.019645
474.037027,-3108.864956,-8956.491898,-3677.258390
474.037350,-2072.576638,-8956.491898,-3677.258390
474.037672,-1110.308913,-9400.615463,-2068.457845
474.037995,-1184.329507,-8882.471304,-1072.533697
474.038317,-444.123565,-9992.780217,-1685.410096
474.038640,1406.391290,-10066.800811,-2528.115143
474.038962,1924.535449,-10362.883188,-3677.258390
474.039285,888.247130,-11695.253884,-2451.505594
474.039607,-814.226536,-11695.253884,1225.752797
474.039930,-666.185348,-10066.800811,536.266849
474.040252,1406.391290,-7550.100608,-1991.848295
474.040575,3997.112087,-6661.853478,-2221.676944
474.040897,4663.297435,-7698.141797,-2757.943793
474.041220,3923.091493,-7624.121203,-383.047749
474.041542,2886.803174,-7772.162391,1685.410096
474.041864,2886.803174,-8364.327145,612.876398
474.042187,2590.720797,-8882.471304,-3217.601092
474.042509,0.000000,-9918.759623,-5822.325785
474.042832,-4219.173869,-10881.027347,-3753.867940
474.043154,-6587.832884,-11325.150913,-536.266849
474.043477,-5403.503377,-10584.944971,-229.828649
474.043799,-2072.576638,-9844.739029,-3600.648841
474.044122,222.061783,-9622.677246,-5209.449386
474.044444,74.020594,-10066.800811,-2451.505594
474.044767,-222.061783,-10436.903782,612.876398
474.045089,814.226536,-9622.677246,536.266849
474.045411,2368.659014,-8808.450710,-2374.896044
474.045734,2886.803174,-8956.491898,-3983.696590
474.046056,1036.288319,-10288.862594,-1532.190996
474.046379,-1998.556043,-10732.986159,2528.115143
474.046701,-2442.679609,-9844.739029,3370.820191
474.047024,0.000000,-7846.182985,229.828649
474.047346,2368.659014,-5847.626942,-2604.724693
474.047669,3256.906145,-6143.709319,-2451.505594
474.047991,2146.597232,-7328.038826,766.095498
474.048314,1036.288319,-8512.368333,1991.848295
474.048636,296.082377,-9104.533087,229.828649
474.048959,-962.267725,-9696.697840,-2987.772442
474.049281,-3330.926739,-11325.150913,-5056.230287
474.049603,-6513.812290,-12805.562797,-3217.601092
474.049926,-8438.347739,-12287.418637,-1149.143247
474.050248,-6957.935855,-11251.130318,-1915.238745
474.050571,-3552.988522,-9992.780217,-4290.134789
474.050893,-1998.556043,-8364.327145,-3294.210641
474.051216,-2442.679609,-7550.100608,-766.095498
474.051538,-3108.864956,-8142.265362,0.000000
474.051861,-1702.473667,-9622.677246,-1608.800546
474.052183,0.000000,-9844.739029,-3907.087040
474.052506,-222.061783,-9770.718434,-3983.696590
474.052828,-1480.411884,-10066.800811,383.047749
474.053151,-1628.453072,-11103.089130,2451.505594
474.053473,666.185348,-9178.553681,1608.800546
474.053795,3997.112087,-7105.977043,-1915.238745
474.054118,5995.668130,-6735.874072,-3600.648841
474.054440,5773.606348,-7402.059420,-1685.410096
474.054763,4145.153275,-8216.285956,1532.190996
474.055085,3182.885551,-8142.265362,2145.067394
474.055408,2590.720797,-8586.388927,-1455.581446
474.055730,1480.411884,-9622.677246,-4749.792088
474.056053,-1850.514855,-11103.089130,-4749.792088
474.056375,-5847.626942,-11399.171507,-3064.381992
474.056698,-7698.141797,-11177.109724,-1302.362347
474.057020,-6291.750507,-9770.718434,-2451.505594
474.057342,-3478.967927,-8808.450710,-5515.887586
474.057665,-2294.638420,-7846.182985,-5822.325785
474.057987,-2146.597232,-8586.388927,-2451.505594
474.058310,-1332.370696,-9622.677246,-612.876398
474.058632,1258.350101,-10140.821405,-1991.848295
474.058955,3108.864956,-11177.109724,-3753.867940
474.059277,2442.679609,-11103.089130,-2681.334243
474.059600,1184.329507,-10436.903782,-383.047749
474.059922,962.267725,-9844.739029,1378.971896
474.060245,2590.720797,-7994.224174,1149.143247
474.060567,4885.359217,-5995.668130,-1072.533697
474.060890,6143.709319,-5477.523971,-2145.067394
474.061212,5847.626942,-5847.626942,995.924147
474.061534,5403.503377,-7402.059420,2451.505594
474.061857,4737.318029,-7994.224174,1149.143247
474.062179,3478.967927,-8882.471304,-2298.286494
474.062502,148.041188,-9770.718434,-3524.039291
474.062824,-4589.276840,-11547.212695,-3064.381992
474.063147,-8068.244768,-13175.665768,-2298.286494
474.063469,-9178.553681,-12361.439231,-2451.505594
474.063792,-6883.915261,-11029.068536,-5592.497135
474.064114,-3330.926739,-10732.986159,-6971.469032
474.064437,-2294.638420,-10510.924376,-3983.696590
474.064759,-1998.556043,-10362.883188,0.000000
474.065082,-1406.391290,-10288.862594,229.828649
474.065404,-296.082377,-10436.903782,-2834.553343
474.065726,296.082377,-10658.965565,-4213.525239
474.066049,-1554.432478,-10140.821405,-2604.724693
474.066371,-3478.967927,-9178.553681,1685.410096
474.066694,-2516.700203,-7698.141797,4443.353888
474.067016,1332.370696,-6587.832884,919.314598
474.067339,4663.297435,-6365.771101,-1915.238745
474.067661,5181.441594,-6291.750507,-612.876398
474.067984,3775.050304,-6883.915261,1838.629195
474.068306,2516.700203,-7772.162391,1991.848295
474.068629,1480.411884,-7846.182985,153.219100
474.068951,370.102971,-8734.430116,-2451.505594
474.069273,-1480.411884,-10510.924376,-4366.744339
474.069596,-4071.132681,-11917.315666,-3907.087040
474.069918,-6069.688724,-12065.356855,-1762.019645
474.070241,-5625.565159,-11843.295072,-1378.971896
474.070563,-3701.029710,-11325.150913,-3370.820191
474.070886,-2812.782580,-10658.965565,-4366.744339
474.071208,-3849.070898,-9178.553681,-2757.943793
474.071531,-4219.173869,-8734.430116,-919.314598
474.071853,-2442.679609,-8364.327145,-2068.457845
474.072176,-148.041188,-8956.491898,-3677.258390
474.072498,518.144159,-9030.512492,-3907.087040
474.072821,-444.123565,-10288.862594,-306.438199
474.073143,-370.102971,-10807.006753,2987.772442
474.073465,1924.535449,-8956.491898,1915.238745
474.073788,5403.503377,-6957.935855,-1915.238745
474.074110,7328.038826,-6661.853478,-2145.067394
474.074433,7105.977043,-6735.874072,-306.438199
474.074755,5551.544565,-6513.812290,1762.019645
474.075078,4219.173869,-7698.141797,1915.238745
474.075400,3849.070898,-8438.347739,-306.438199
474.075723,2590.720797,-9696.697840,-4060.306139
474.076045,-740.205942,-11917.315666,-4366.744339
474.076368,-4885.359217,-13101.645173,-1608.800546
474.076690,-7402.059420,-12287.418637,0.000000
474.077013,-6069.688724,-9548.656652,-2068.457845
474.077335,-4441.235652,-7624.121203,-6894.859482
474.077657,-3627.009116,-8438.347739,-7354.516781
474.077980,-4293.194464,-8956.491898,-3447.429741
474.078302,-3701.029710,-9770.718434,-842.705048
474.078625,-814.226536,-11547.212695,-2911.162892
474.078947,1776.494261,-12657.521608,-5056.230287
474.079270,1480.411884,-13175.665768,-2757.943793
474.079592,0.000000,-11325.150913,766.095498
474.079915,-296.082377,-8956.491898,2757.943793
474.080237,1924.535449,-6661.853478,1455.581446
474.080560,4589.276840,-4145.153275,-2068.457845
474.080882,5107.421000,-3849.070898,-2374.896044
474.081205,4293.194464,-5107.421000,689.485948
474.081527,3849.070898,-7031.956449,2451.505594
474.081849,4145.153275,-8438.347739,1149.143247
474.082172,4293.194464,-9770.718434,-1685.410096
474.082494,2812.782580,-10807.006753,-3447.429741
474.082817,-1702.473667,-12213.398043,-2221.676944
474.083139,-5847.626942,-12287.418637,-689.485948
474.083462,-7994.224174,-11547.212695,-1532.190996
474.083784,-7031.956449,-10214.842000,-5822.325785
474.084107,-5699.585753,-9474.636058,-7967.393179
474.084429,-4589.276840,-10881.027347,-5745.716235
474.084752,-4515.256246,-11547.212695,-1455.581446
474.085074,-3256.906145,-11843.295072,-1072.533697
474.085396,-1628.453072,-11473.192101,-2681.334243
474.085719,-444.123565,-11103.089130,-3140.991542
474.086041,-888.247130,-10214.842000,-2068.457845
474.086364,-2072.576638,-8512.368333,459.657299
474.086686,-1628.453072,-5921.647536,2068.457845
474.087009,1406.391290,-4737.318029,0.000000
474.087331,5329.482782,-5033.400406,-1762.019645
474.087654,7402.059420,-6661.853478,-153.219100
474.087976,5477.523971,-6957.935855,1838.629195
474.088299,3775.050304,-7846.182985,2834.553343
474.088621,3404.947333,-9178.553681,842.705048
474.088944,2886.803174,-10955.047942,-3447.429741
474.089266,444.123565,-11991.336260,-4213.525239
474.089588,-3552.988522,-12213.398043,-2068.457845
474.089911,-5995.668130,-11547.212695,0.000000
474.090233,-5551.544565,-11325.150913,-1455.581446
474.090556,-4219.173869,-10288.862594,-4366.744339
474.090878,-3997.112087,-9992.780217,-5056.230287
474.091201,-4145.153275,-10510.924376,-3370.820191
474.091523,-3923.091493,-10955.047942,-1072.533697
474.091846,-1924.535449,-10807.006753,-1302.362347
474.092168,0.000000,-9326.594869,-3983.696590
474.092491,962.267725,-9474.636058,-3677.258390
474.092813,-222.061783,-10214.842000,-919.314598
474.093136,-1258.350101,-9474.636058,2068.457845
474.093458,0.000000,-7698.141797,1149.143247
474.093780,3404.947333,-6143.709319,-995.924147
474.094103,6587.832884,-6513.812290,-1685.410096
474.094425,7402.059420,-7031.956449,229.828649
474.094748,5403.503377,-7031.956449,2451.505594
474.095070,4367.215058,-7179.997637,2834.553343
474.095393,4219.173869,-7328.038826,0.000000
474.095715,2442.679609,-8364.327145,-3677.258390
474.096038,-1184.329507,-10807.006753,-3447.429741
474.096360,-4811.338623,-13027.624579,-1378.971896
474.096683,-6661.853478,-13027.624579,689.485948
474.097005,-5255.462188,-11103.089130,-1762.019645
474.097327,-4219.173869,-9178.553681,-5132.839837
474.097650,-3923.091493,-8956.491898,-4673.182538
474.097972,-4737.318029,-8808.450710,-2221.676944
474.098295,-4663.297435,-9622.677246,-1149.143247
474.098617,-3404.947333,-9770.718434,-2987.772442
474.098940,-1776.494261,-9696.697840,-5515.887586
474.099262,-1628.453072,-11325.150913,-5209.449386
474.099585,-3108.864956,-11769.274478,-1378.971896
474.099907,-2738.761985,-11695.253884,2221.676944
474.100230,-222.061783,-9030.512492,1685.410096
474.100552,3552.988522,-6735.874072,-1532.190996
474.100875,5995.668130,-5329.482782,-2374.896044
474.101197,6069.688724,-5625.565159,-995.924147
474.101519,4737.318029,-6735.874072,1915.238745
474.101842,3775.050304,-7105.977043,2451.505594
474.102164,3478.967927,-7772.162391,-919.314598
474.102487,1776.494261,-9918.759623,-4903.011187
474.102809,-1924.535449,-12361.439231,-3447.429741
474.103132,-5403.503377,-12953.603985,0.000000
474.103454,-5773.606348,-12361.439231,-383.047749
474.103777,-4071.132681,-10510.924376,-4213.525239
474.104099,-2442.679609,-8808.450710,-5515.887586
474.104422,-4145.153275,-7179.997637,-3983.696590
474.104744,-5551.544565,-8660.409521,-1225.752797
474.105067,-5551.544565,-10214.842000,-1608.800546
474.105389,-2664.741391,-10584.944971,-5209.449386
474.105711,-888.247130,-11399.171507,-7354.516781
474.106034,-1110.308913,-12879.583391,-3983.696590
474.106356,-1480.411884,-13545.768739,1838.629195
474.106679,0.000000,-9474.636058,3677.258390
474.107001,3849.070898,-6069.688724,-306.438199
474.107324,6143.709319,-4885.359217,-3370.820191
474.107646,6365.771101,-5107.421000,-2681.334243
474.107969,4737.318029,-5995.668130,459.657299
474.108291,3627.009116,-6513.812290,2834.553343
474.108614,5329.482782,-8142.265362,612.876398
474.108936,6217.729913,-9326.594869,-3064.381992
474.109258,3849.070898,-11029.068536,-3753.867940
474.109581,-1036.288319,-12657.521608,-229.828649
474.109903,-4663.297435,-12879.583391,2298.286494
474.110226,-4515.256246,-11029.068536,-1608.800546
474.110548,-2738.761985,-9104.533087,-6435.202183
474.110871,-1628.453072,-8586.388927,-7277.907231
474.111193,-2220.617826,-9622.677246,-3830.477490
474.111516,-2442.679609,-11103.089130,306.438199
474.111838,-1258.350101,-11473.192101,0.000000
474.112161,296.082377,-10807.006753,-2298.286494
474.112483,74.020594,-11177.109724,-3753.867940
474.112806,-2368.659014,-11177.109724,-1838.629195
474.113128,-4737.318029,-10214.842000,766.095498
474.113450,-3552.988522,-7772.162391,1302.362347
474.113773,0.000000,-5033.400406,-766.095498
474.114095,2812.782580,-3849.070898,-1455.581446
474.114418,2590.720797,-3849.070898,0.000000
474.114740,1480.411884,-6069.688724,1608.800546
474.115063,1850.514855,-9030.512492,1762.019645
474.115385,2368.659014,-10955.047942,-995.924147
474.115708,740.205942,-10955.047942,-4060.306139
474.116030,-2368.659014,-11769.274478,-2987.772442
474.116353,-5329.482782,-11917.315666,-766.095498
474.116675,-6291.750507,-11991.336260,-1225.752797
474.116998,-4293.194464,-11029.068536,-2911.162892
474.117320,-2960.823768,-9474.636058,-5056.230287
474.117642,-2368.659014,-8882.471304,-4213.525239
474.117965,-2664.741391,-9992.780217,-689.485948
474.118287,-2294.638420,-10955.047942,995.924147
474.118610,-1258.350101,-10436.903782,-842.705048
474.118932,518.144159,-9770.718434,-3064.381992
474.119255,0.000000,-9474.636058,-2604.724693
474.119577,-1776.494261,-8660.409521,383.047749
474.119900,-2590.720797,-7476.080014,2298.286494
474.120222,-888.247130,-7105.977043,1149.143247
474.120545,1554.432478,-6513.812290,-1378.971896
474.120867,3404.947333,-6809.894666,-3370.820191
474.121189,2442.679609,-7105.977043,-1532.190996
474.121512,1850.514855,-8290.306550,842.705048
474.121834,3182.885551,-9474.636058,536.266849
474.122157,3701.029710,-9548.656652,-3140.991542
474.122479,1554.432478,-10288.862594,-4519.963438
474.122802,-2812.782580,-11399.171507,-2451.505594
474.123124,-5699.585753,-12139.377449,-766.095498
474.123447,-6365.771101,-11325.150913,-2451.505594
474.123769,-3997.112087,-9844.739029,-5132.839837
474.124092,-1776.494261,-9030.512492,-5822.325785
474.124414,-1554.432478,-7994.224174,-3907.087040
474.124737,-1554.432478,-8290.306550,-153.219100
474.125059,0.000000,-8512.368333,0.000000
474.125381,1998.556043,-8882.471304,-4136.915689
474.125704,2886.803174,-10436.903782,-6588.421283
474.126026,1258.350101,-12879.583391,-3064.381992
474.126349,-962.267725,-12805.562797,612.876398
474.126671,-370.102971,-11177.109724,1455.581446
474.126994,2886.803174,-8438.347739,-612.876398
474.127316,6439.791695,-6513.812290,-3600.648841
474.127639,6957.935855,-6661.853478,-3064.381992
474.127961,5107.421000,-7550.100608,1378.971896
474.128284,3627.009116,-7920.203579,3830.477490
474.128606,3701.029710,-7624.121203,1149.143247
474.128929,3849.070898,-7994.224174,-3064.381992
474.129251,1184.329507,-9992.780217,-4903.011187
474.129573,-2738.761985,-11695.253884,-1225.752797
474.129896,-5921.647536,-11917.315666,1149.143247
474.130218,-6069.688724,-10881.027347,-306.438199
474.130541,-4293.194464,-9030.512492,-3677.258390
474.130863,-2812.782580,-7920.203579,-6052.154434
474.131186,-4811.338623,-8512.368333,-4826.401637
474.131508,-4885.359217,-10658.965565,-1685.410096
474.131831,-3923.091493,-11325.150913,-2451.505594
474.132153,-2146.597232,-11769.274478,-4673.182538
474.132476,-1850.514855,-12435.459826,-3677.258390
474.132798,-2738.761985,-11991.336260,-1302.362347
474.133121,-3701.029710,-10510.924376,-229.828649
474.133443,-2368.659014,-9252.574275,1455.581446
474.133765,1110.308913,-7698.141797,919.314598
474.134088,3701.029710,-5773.606348,-1378.971896
474.134410,3997.112087,-4145.153275,612.876398
474.134733,3182.885551,-4663.297435,3600.648841
474.135055,3330.926739,-5255.462188,2604.724693
474.135378,4219.173869,-7031.956449,-842.705048
474.135700,3701.029710,-9030.512492,-3140.991542
474.136023,518.144159,-10732.986159,-1991.848295
474.136345,-3404.947333,-12139.377449,689.485948
474.136668,-5255.462188,-13175.665768,1991.848295
474.136990,-4515.256246,-11325.150913,-1378.971896
474.137312,-2886.803174,-9770.718434,-6818.249932
474.137635,-3256.906145,-9548.656652,-6358.592633
474.137957,-4737.318029,-8808.450710,-536.266849
474.138280,-5477.523971,-8364.327145,1608.800546
474.138602,-4515.256246,-8734.430116,-1762.019645
474.138925,-2368.659014,-10510.924376,-4903.011187
474.139247,-2146.597232,-11843.295072,-4826.401637
474.139570,-4219.173869,-11695.253884,-1915.238745
474.139892,-4219.173869,-10584.944971,1149.143247
474.140214,-1110.308913,-8882.471304,1378.971896
474.140537,3997.112087,-6143.709319,-2221.676944
474.140859,6439.791695,-5329.482782,-3753.867940
474.141182,6069.688724,-5995.668130,-1532.190996
474.141504,4959.379811,-7994.224174,536.266849
474.141827,4811.338623,-9326.594869,536.266849
474.142149,5107.421000,-9326.594869,-1608.800546
474.142471,3404.947333,-10140.821405,-4213.525239
474.142794,74.020594,-12361.439231,-4136.915689
474.143116,-3182.885551,-12583.501014,-1072.533697
474.143439,-4071.132681,-11473.192101,0.000000
474.143761,-2072.576638,-8364.327145,-2987.772442
474.144083,-296.082377,-7105.977043,-5209.449386
474.144406,148.041188,-8660.409521,-3294.210641
474.144728,-444.123565,-9474.636058,0.000000
474.145051,0.000000,-10214.842000,-306.438199
474.145373,1702.473667,-11473.192101,-3140.991542
474.145695,2812.782580,-11177.109724,-3983.696590
474.146018,1702.473667,-10881.027347,-3447.429741
474.146340,-1110.308913,-10658.965565,-919.314598
474.146663,-2516.700203,-10140.821405,1762.019645
474.146985,-814.226536,-9104.533087,-689.485948
474.147308,1110.308913,-6883.915261,-3370.820191
474.147630,1702.473667,-5625.565159,-2757.943793
474.147952,1110.308913,-6217.729913,0.000000
474.148275,1480.411884,-7105.977043,2374.896044
474.148597,1776.494261,-7624.121203,919.314598
474.148920,1702.473667,-8956.491898,-2451.505594
474.149242,148.041188,-9992.780217,-4060.306139
474.149564,-3552.988522,-10658.965565,-2757.943793
474.149887,-6735.874072,-11769.274478,-612.876398
474.150209,-6217.729913,-12065.356855,-1072.533697
474.150532,-4589.276840,-10362.883188,-4290.134789
474.150854,-2960.823768,-8956.491898,-5669.106685
474.151177,-2368.659014,-9178.553681,-3294.210641
474.151499,-2146.597232,-9622.677246,-383.047749
474.151821,-740.205942,-9326.594869,-229.828649
474.152144,370.102971,-9844.739029,-2451.505594
474.152466,370.102971,-10881.027347,-2987.772442
474.152789,-1924.535449,-11251.130318,-766.095498
474.153111,-4293.194464,-10288.862594,2145.067394
474.153433,-4219.173869,-8068.244768,2911.162892
474.153756,-666.185348,-6143.709319,-689.485948
474.154078,1998.556043,-5773.606348,-2451.505594
474.154401,3256.906145,-6513.812290,-1685.410096
474.154723,3182.885551,-7772.162391,1149.143247
474.155045,3256.906145,-9252.574275,1991.848295
474.155368,4219.173869,-9252.574275,-842.705048
474.155690,2664.741391,-9622.677246,-3983.696590
474.156013,-740.205942,-10955.047942,-4136.915689
474.156335,-4441.235652,-11843.295072,-2068.457845
474.156658,-6439.791695,-11473.192101,-2068.457845
474.156980,-4885.359217,-10732.986159,-4673.182538
474.157302,-2886.803174,-11251.130318,-5132.839837
474.157625,-2368.659014,-10584.944971,-2987.772442
474.157947,-3330.926739,-9252.574275,536.266849
474.158270,-3775.050304,-7624.121203,536.266849
474.158592,-1332.370696,-7179.997637,-1838.629195
474.158914,814.226536,-7846.182985,-4903.011187
474.159237,222.061783,-8882.471304,-4290.134789
474.159559,-1554.432478,-9918.759623,-842.705048
474.159882,-1406.391290,-10362.883188,2757.943793
474.160204,1702.473667,-9992.780217,2221.676944
474.160526,5847.626942,-8586.388927,-1072.533697
474.160849,6735.874072,-8068.244768,-3294.210641
474.161171,5847.626942,-8660.409521,-842.705048
474.161494,4811.338623,-9104.533087,1838.629195
474.161816,4663.297435,-7994.224174,1455.581446
474.162139,4515.256246,-6661.853478,-2834.553343
474.162461,3182.885551,-8142.265362,-5975.544884
474.162783,0.000000,-11103.089130,-4213.525239
474.163106,-4367.215058,-12805.562797,76.609550
474.163428,-6439.791695,-11547.212695,1378.971896
474.163751,-6143.709319,-9178.553681,-2834.553343
474.164073,-3701.029710,-8882.471304,-6128.763984
474.164395,-1998.556043,-8734.430116,-5209.449386
474.164718,-1480.411884,-8734.430116,-2451.505594
474.165040,-444.123565,-8660.409521,-229.828649
474.165363,1776.494261,-9252.574275,-689.485948
474.165685,3034.844362,-9178.553681,-2834.553343
474.166007,1184.329507,-10584.944971,-3447.429741
474.166330,-2294.638420,-12583.501014,-536.266849
474.166652,-3775.050304,-12139.377449,306.438199
474.166975,-2146.597232,-9474.636058,-1149.143247
474.167297,1036.288319,-5847.626942,-1762.019645
474.167620,3256.906145,-4737.318029,-2298.286494
474.167942,2960.823768,-5699.585753,-689.485948
474.168264,2886.803174,-7698.141797,1378.971896
474.168587,3256.906145,-8882.471304,459.657299
474.168909,2738.761985,-10066.800811,-2987.772442
474.169232,592.164754,-12361.439231,-4366.744339
474.169554,-3182.885551,-13249.686362,-919.314598
474.169876,-6143.709319,-11917.315666,0.000000
474.170199,-5551.544565,-10214.842000,-2221.676944
474.170521,-3256.906145,-9030.512492,-4903.011187
474.170844,-1554.432478,-8734.430116,-5209.449386
474.171166,-1850.514855,-8808.450710,-1915.238745
474.171489,-3182.885551,-8734.430116,1685.410096
474.171811,-3330.926739,-9030.512492,766.095498
474.172133,-2294.638420,-9844.739029,-3524.039291
474.172456,-2072.576638,-10288.862594,-5286.058936
474.172778,-4293.194464,-10362.883188,-3140.991542
474.173101,-5107.421000,-10658.965565,306.438199
474.173423,-3775.050304,-8882.471304,2298.286494
474.173745,-148.041188,-8290.306550,229.828649
474.174068,2442.679609,-7772.162391,-2298.286494
474.174390,3330.926739,-7402.059420,-2068.457845
474.174713,3034.844362,-7624.121203,229.828649
474.175035,3849.070898,-8364.327145,1149.143247
474.175357,5107.421000,-7920.203579,-229.828649
474.175680,4811.338623,-7328.038826,-2911.162892
474.176002,2220.617826,-8512.368333,-3217.601092
474.176325,-1850.514855,-10436.903782,-459.657299
474.176647,-4145.153275,-11251.130318,689.485948
474.176970,-3552.988522,-9918.759623,-2068.457845
474.177292,-1776.494261,-9992.780217,-5132.839837
474.177614,-888.247130,-10214.842000,-3064.381992
474.177937,-1554.432478,-9548.656652,1072.533697
474.178259,-1702.473667,-8068.244768,1149.143247
474.178582,-444.123565,-7105.977043,-2451.505594
474.178904,1924.535449,-8142.265362,-5822.325785
474.179226,1258.350101,-10362.883188,-6358.592633
474.179549,-1554.432478,-12953.603985,-1532.190996
474.179871,-3404.947333,-13323.706956,2451.505594
474.180194,-1850.514855,-11103.089130,383.047749
474.180516,2294.638420,-9030.512492,-4826.401637
474.180838,4811.338623,-7994.224174,-4903.011187
474.181161,4663.297435,-7031.956449,-1072.533697
474.181483,4293.194464,-6661.853478,1149.143247
474.181806,4885.359217,-6883.915261,1838.629195
474.182128,5847.626942,-8068.244768,-842.705048
474.182451,4737.318029,-9844.739029,-4366.744339
474.182773,222.061783,-12139.377449,-3830.477490
474.183095,-5255.462188,-12435.459826,0.000000
474.183418,-7105.977043,-11103.089130,1072.533697
474.183740,-5033.400406,-8882.471304,-2451.505594
474.184063,-2812.782580,-7550.100608,-5592.497135
474.184385,-1554.432478,-8734.430116,-4136.915689
474.184707,-1702.473667,-9622.677246,-689.485948
474.185030,-1258.350101,-10436.903782,689.485948
474.185352,-222.061783,-10362.883188,-612.876398
474.185675,0.000000,-10066.800811,-3600.648841
474.185997,-1998.556043,-11103.089130,-3524.039291
474.186320,-4737.318029,-11251.130318,-612.876398
474.186642,-5329.482782,-9474.636058,995.924147
474.186964,-3108.864956,-6513.812290,-383.047749
474.187287,592.164754,-4811.338623,-2451.505594
474.187609,2812.782580,-6217.729913,-2068.457845
474.187932,3182.885551,-7920.203579,76.609550
474.188254,2960.823768,-9030.512492,1838.629195
474.188576,3997.112087,-9622.677246,995.924147
474.188899,3849.070898,-9178.553681,-2068.457845
474.189221,1702.473667,-9178.553681,-4060.306139
474.189544,-2516.700203,-10214.842000,-2757.943793
474.189866,-5847.626942,-11325.150913,-383.047749
474.190188,-6365.771101,-10807.006753,-766.095498
474.190511,-4071.132681,-10214.842000,-4366.744339
474.190833,-1850.514855,-9622.677246,-4519.963438
474.191156,-1998.556043,-9548.656652,-1225.752797
474.191478,-2738.761985,-10214.842000,2298.286494
474.191801,-2886.803174,-9104.533087,2528.115143
474.192123,-2812.782580,-7402.059420,-2757.943793
474.192445,-3108.864956,-7550.100608,-5898.935335
474.192768,-4589.276840,-9326.594869,-4673.182538
474.193090,-6439.791695,-10510.924376,-689.485948
474.193413,-5625.565159,-10955.047942,1455.581446
474.193735,-2368.659014,-10510.924376,612.876398
474.194057,2368.659014,-9548.656652,-1762.019645
474.194380,4663.297435,-8364.327145,-2987.772442
474.194702,4885.359217,-8364.327145,-2451.505594
474.195025,3849.070898,-9326.594869,-842.705048
474.195347,3034.844362,-8142.265362,842.705048
474.195669,962.267725,-6883.915261,-1378.971896
474.195992,-1776.494261,-8290.306550,-4979.620737
474.196314,-5255.462188,-11473.192101,-4443.353888
474.196637,-8364.327145,-11843.295072,-1915.238745
474.196959,-7846.182985,-10436.903782,-689.485948
474.197282,-4367.215058,-10732.986159,-3524.039291
474.197604,-1628.453072,-10658.965565,-3907.087040
474.197926,-814.226536,-9326.594869,-536.266849
474.198249,-2294.638420,-6069.688724,1072.533697
474.198571,-2442.679609,-5995.668130,0.000000
474.198894,-1184.329507,-7920.203579,-3600.648841
474.199216,-1332.370696,-8290.306550,-5439.278036
474.199538,-3923.091493,-9918.759623,-4826.401637
474.199861,-5329.482782,-12805.562797,459.657299
474.200183,-4811.338623,-13027.624579,3830.477490
474.200506,-2738.761985,-9622.677246,1072.533697
474.200828,0.000000,-7179.997637,-2528.115143
474.201150,1702.473667,-6957.935855,-3524.039291
474.201473,1406.391290,-7772.162391,-1532.190996
474.201795,296.082377,-7920.203579,919.314598
474.202118,0.000000,-7476.080014,766.095498
474.202440,-444.123565,-7920.203579,-2221.676944
474.202763,-666.185348,-9400.615463,-4673.182538
474.203085,-2812.782580,-9992.780217,-3677.258390
474.203407,-5107.421000,-10362.883188,-2681.334243
474.203730,-6069.688724,-10732.986159,-1991.848295
474.204052,-6069.688724,-11177.109724,-2068.457845
474.204375,-6217.729913,-10436.903782,-3370.820191
474.204697,-6217.729913,-10288.862594,-4903.011187
474.205019,-5773.606348,-10362.883188,-4443.353888
474.205342,-4885.359217,-9548.656652,-1838.629195
474.205664,-4145.153275,-8808.450710,-995.924147
474.205987,-3108.864956,-7846.182985,-1915.238745
474.206309,-888.247130,-8956.491898,-2374.896044
474.206632,814.226536,-9474.636058,-2528.115143
474.206954,0.000000,-9474.636058,-2298.286494
474.207276,-1110.308913,-9992.780217,76.609550
474.207599,-1480.411884,-11029.068536,2451.505594
474.207921,-592.164754,-10955.047942,229.828649
474.208244,-444.123565,-10362.883188,-1149.143247
474.208566,-1036.288319,-10436.903782,-612.876398
474.208888,-1184.329507,-9548.656652,0.000000
474.209211,-1332.370696,-7179.997637,-306.438199
474.209533,-1480.411884,-5847.626942,-612.876398
474.209856,-1036.288319,-6513.812290,-995.924147
474.210178,-1258.350101,-6957.935855,-2221.676944
474.210500,-2072.576638,-8216.285956,-3140.991542
474.210823,-2368.659014,-9918.759623,-1838.629195
474.211145,-3256.906145,-11621.233289,-1532.190996
474.211468,-3923.091493,-10436.903782,-1762.019645
474.211790,-3923.091493,-8512.368333,-2757.943793
474.212113,-3330.926739,-8808.450710,-4979.620737
474.212435,-2368.659014,-11843.295072,-4903.011187
474.212757,-3256.906145,-13249.686362,-1532.190996
474.213080,-6439.791695,-11029.068536,1455.581446
474.213402,-7698.141797,-8882.471304,1149.143247
474.213725,-6291.750507,-7105.977043,-1225.752797
474.214047,-3478.967927,-6735.874072,-3447.429741
474.214369,-1036.288319,-5921.647536,-3983.696590
474.214692,370.102971,-6957.935855,-842.705048
474.215014,2072.576638,-8808.450710,2221.676944
474.215337,3923.091493,-9548.656652,3983.696590
474.215659,5403.503377,-8660.409521,2757.943793
474.215981,6587.832884,-8808.450710,-2681.334243
474.216304,5477.523971,-10584.944971,-5056.230287
474.216626,2812.782580,-12139.377449,-1685.410096
474.216949,-962.267725,-10881.027347,766.095498
474.217271,-5181.441594,-10140.821405,0.000000
474.217594,-8290.306550,-11695.253884,-1302.362347
474.217916,-10658.965565,-11325.150913,-2681.334243
474.218238,-13323.706956,-9622.677246,-4903.011187
474.218561,-14508.036463,-8512.368333,-4903.011187
474.218883,-12213.398043,-7846.182985,-2451.505594
474.219206,-7550.100608,-7698.141797,-2298.286494
474.219528,-2960.823768,-5847.626942,-2145.067394
474.219850,-888.247130,-4293.194464,-1378.971896
474.220173,814.226536,-4885.359217,-2834.553343
474.220495,1776.494261,-8438.347739,-3370.820191
474.220818,1776.494261,-11621.233289,-3294.210641
474.221140,1406.391290,-13767.830521,-3370.820191
474.221462,1628.453072,-14656.077652,-2757.943793
474.221785,888.247130,-14211.954086,-1225.752797
474.222107,-518.144159,-11843.295072,-306.438199
474.222430,-1850.514855,-8660.409521,-995.924147
474.222752,-4145.153275,-6439.791695,-1991.848295
474.223075,-6069.688724,-6513.812290,-842.705048
474.223397,-7105.977043,-7105.977043,-995.924147
474.223719,-7402.059420,-7994.224174,-1991.848295
474.224042,-5921.647536,-9770.718434,-1149.143247
474.224364,-3330.926739,-10732.986159,536.266849
474.224687,-296.082377,-9770.718434,1072.533697
474.225009,1332.370696,-7846.182985,995.924147
474.225331,3256.906145,-7179.997637,76.609550
474.225654,4811.338623,-6661.853478,-2068.457845
474.225976,5403.503377,-7254.018232,-3753.867940
474.226299,4663.297435,-8808.450710,-4213.525239
474.226621,2368.659014,-9696.697840,-2757.943793
474.226944,222.061783,-11843.295072,-3447.429741
474.227266,-2368.659014,-13693.809927,-2987.772442
474.227588,-5403.503377,-14656.077652,-2451.505594
474.227911,-7698.141797,-14434.015869,-2298.286494
474.228233,-8734.430116,-12731.542202,-2757.943793
474.228556,-9400.615463,-9474.636058,-2834.553343
474.228878,-8216.285956,-6957.935855,-2451.505594
474.229200,-6365.771101,-6217.729913,-2451.505594
474.229523,-4071.132681,-5625.565159,-1378.971896
474.229845,-2812.782580,-5107.421000,229.828649
474.230168,-1332.370696,-5773.606348,-612.876398
474.230490,-1258.350101,-7402.059420,-1532.190996
474.230812,-1628.453072,-9918.759623,-1915.238745
474.231135,-2442.679609,-11103.089130,-2221.676944
474.231457,-2516.700203,-11399.171507,-3140.991542
474.231780,-1628.453072,-12583.501014,-2298.286494
474.232102,-1332.370696,-11769.274478,-2068.457845
474.232425,-148.041188,-9770.718434,-1378.971896
474.232747,0.000000,-9252.574275,-842.705048
474.233069,-296.082377,-9770.718434,0.000000
474.233392,-666.185348,-8956.491898,-306.438199
474.233714,-1702.473667,-8142.265362,-1149.143247
474.234037,-2368.659014,-7031.956449,-766.095498
474.234359,-2220.617826,-6587.832884,-383.047749
474.234681,-2590.720797,-5773.606348,-229.828649
474.235004,-2812.782580,-5699.585753,0.000000
474.235326,-3478.967927,-6809.894666,-1149.143247
474.235649,-4293.194464,-7698.141797,-2374.896044
474.235971,-5033.400406,-9622.677246,-3294.210641
474.236293,-5699.585753,-11621.233289,-3907.087040
474.236616,-5921.647536,-12657.521608,-4290.134789
474.236938,-5773.606348,-12583.501014,-4443.353888
474.237261,-5477.523971,-12953.603985,-3830.477490
474.237583,-4811.338623,-12879.583391,-4136.915689
474.237906,-3775.050304,-11991.336260,-3294.210641
474.238228,-2960.823768,-10584.944971,-2451.505594
474.238550,-2146.597232,-8808.450710,-1608.800546
474.238873,-1258.350101,-8660.409521,-919.314598
474.239195,-518.144159,-7402.059420,229.828649
474.239518,296.082377,-5551.544565,-153.219100
474.239840,1110.308913,-5477.523971,-1072.533697
474.240163,2146.597232,-6291.750507,-612.876398
474.240485,2072.576638,-6735.874072,229.828649
474.240807,1332.370696,-7624.121203,-306.438199
474.241130,1258.350101,-9548.656652,-612.876398
474.241452,1184.329507,-11843.295072,-919.314598
474.241775,592.164754,-12657.521608,-1532.190996
474.242097,0.000000,-12065.356855,-1302.362347
474.242420,-1850.514855,-11621.233289,-459.657299
474.242742,-2664.741391,-10658.965565,-995.924147
474.243065,-2664.741391,-9770.718434,-1225.752797
474.243387,-3256.906145,-9030.512492,-1532.190996
474.243710,-3182.885551,-8808.450710,-1225.752797
474.244032,-3330.926739,-8660.409521,-1072.533697
474.244355,-3256.906145,-8808.450710,-229.828649
474.244677,-3627.009116,-8512.368333,-153.219100
474.244999,-3849.070898,-7772.162391,-842.705048
474.245322,-4441.235652,-6291.750507,-2145.067394
474.245644,-5033.400406,-6143.709319,-3830.477490
474.245967,-4811.338623,-7328.038826,-3830.477490
474.246289,-5551.544565,-8438.347739,-2757.943793
474.246612,-5773.606348,-9770.718434,-2834.553343
474.246934,-5107.421000,-12139.377449,-3830.477490
474.247257,-3997.112087,-13915.871710,-3140.991542
474.247579,-3627.009116,-13471.748144,-2298.286494
474.247902,-2812.782580,-12065.356855,-612.876398
474.248224,-1850.514855,-9918.759623,-919.314598
474.248546,-888.247130,-8586.388927,-1225.752797
474.248869,-888.247130,-6439.791695,306.438199
474.249191,-1036.288319,-6365.771101,612.876398
474.249514,-1258.350101,-7550.100608,-306.438199
474.249836,-1110.308913,-8808.450710,-383.047749
474.250159,-1110.308913,-8586.388927,0.000000
474.250481,-1406.391290,-8734.430116,229.828649
474.250804,-1554.432478,-9474.636058,459.657299
474.251126,-1924.535449,-8882.471304,-459.657299
474.251449,-2146.597232,-8068.244768,-2221.676944
474.251771,-2368.659014,-8882.471304,-4213.525239
474.252094,-2220.617826,-11177.109724,-3830.477490
474.252416,-2590.720797,-13027.624579,-2604.724693
474.252738,-2960.823768,-13249.686362,-2757.943793
474.253061,-2516.700203,-13693.809927,-2374.896044
474.253383,-1924.535449,-13693.809927,-2298.286494
474.253706,-1850.514855,-12139.377449,-1225.752797
474.254028,-2368.659014,-10288.862594,0.000000
474.254351,-1776.494261,-8586.388927,-842.705048
474.254673,-518.144159,-6883.915261,-1532.190996
474.254996,222.061783,-6439.791695,-153.219100
474.255318,1332.370696,-7402.059420,1608.800546
474.255641,2368.659014,-7994.224174,1685.410096
474.255963,3330.926739,-8660.409521,1302.362347
474.256285,3552.988522,-9548.656652,2068.457845
474.256608,3849.070898,-11029.068536,1838.629195
474.256930,3330.926739,-11029.068536,1225.752797
474.257253,2368.659014,-9548.656652,1149.143247
474.257575,2368.659014,-9104.533087,842.705048
474.257898,2886.803174,-9474.636058,766.095498
474.258220,2368.659014,-9770.718434,1685.410096
474.258543,1332.370696,-9252.574275,2681.334243
474.258865,370.102971,-8956.491898,2834.553343
474.259188,74.020594,-8882.471304,2221.676944
474.259510,-592.164754,-8290.306550,2451.505594
474.259833,-1850.514855,-8216.285956,1991.848295
474.260155,-2960.823768,-7624.121203,1838.629195
474.260477,-2960.823768,-7402.059420,2604.724693
474.260800,-3108.864956,-7254.018232,1915.238745
474.261122,-3256.906145,-7254.018232,1838.629195
474.261445,-3108.864956,-8660.409521,1762.019645
474.261767,-2516.700203,-9918.759623,2221.676944
474.262090,-2368.659014,-10510.924376,2221.676944
474.262412,-2664.741391,-11473.192101,2451.505594
474.262735,-3182.885551,-11473.192101,3064.381992
474.263057,-3627.009116,-11103.089130,2911.162892
474.263380,-3330.926739,-10510.924376,2068.457845
474.263702,-2960.823768,-9918.759623,2145.067394
474.264024,-1998.556043,-9400.615463,2528.115143
474.264347,-888.247130,-9104.533087,2911.162892
474.264669,222.061783,-9030.512492,3983.696590
474.264992,740.205942,-9992.780217,3524.039291
474.265314,888.247130,-9918.759623,2757.943793
474.265637,222.061783,-9844.739029,1915.238745
474.265959,-592.164754,-9622.677246,842.705048
474.266282,-1184.329507,-9844.739029,612.876398
474.266604,-2442.679609,-9918.759623,229.828649
474.266927,-3775.050304,-9992.780217,459.657299
474.267249,-4367.215058,-9622.677246,0.000000
474.267572,-4071.132681,-10510.924376,-842.705048
474.267894,-3404.947333,-10658.965565,-1455.581446
474.268216,-3330.926739,-10140.821405,-995.924147
474.268539,-2886.803174,-9696.697840,-612.876398
474.268861,-1628.453072,-9770.718434,-459.657299
474.269184,148.041188,-9622.677246,-383.047749
474.269506,1776.494261,-8734.430116,-383.047749
474.269829,3182.885551,-7402.059420,76.609550
474.270151,4219.173869,-6365.771101,383.047749
474.270474,5699.585753,-6513.812290,-306.438199
474.270796,6439.791695,-7031.956449,-995.924147
474.271119,6439.791695,-7772.162391,-1378.971896
474.271441,4293.194464,-8660.409521,-1685.410096
474.271763,1332.370696,-9252.574275,-1608.800546
474.272086,-1850.514855,-9474.636058,-1225.752797
474.272408,-4811.338623,-9474.636058,-3064.381992
474.272731,-6069.688724,-10807.006753,-5515.887586
474.273053,-4589.276840,-12139.377449,-5515.887586
474.273376,-3034.844362,-11251.130318,-5209.449386
474.273698,-888.247130,-12435.459826,-3217.601092
474.274021,1850.514855,-14211.954086,153.219100
474.274343,5033.400406,-13915.871710,1149.143247
474.274666,6587.832884,-11769.274478,459.657299
474.274988,6957.935855,-9252.574275,995.924147
474.275311,6809.894666,-7994.224174,3447.429741
474.275633,6809.894666,-5107.421000,2068.457845
474.275955,5255.462188,-3552.988522,229.828649
474.276278,2146.597232,-3404.947333,919.314598
474.276600,-2294.638420,-3923.091493,995.924147
474.276923,-6217.729913,-6365.771101,-1378.971896
474.277245,-8660.409521,-10288.862594,-3447.429741
474.277568,-9844.739029,-13545.768739,-4749.792088
474.277890,-9992.780217,-15840.407159,-5439.278036
474.278213,-8512.368333,-16284.530724,-5209.449386
474.278535,-5403.503377,-16062.468941,-1532.190996
474.278858,-3849.070898,-13841.851115,-919.314598
474.279180,-3478.967927,-10362.883188,-2374.896044
474.279502,-2368.659014,-8734.430116,-3600.648841
474.279825,-2146.597232,-7772.162391,-3217.601092
474.280147,-2146.597232,-8364.327145,-1685.410096
474.280470,-2368.659014,-9252.574275,1685.410096
474.280792,-2516.700203,-10288.862594,4213.525239
474.281115,-2220.617826,-10584.944971,5056.230287
474.281437,-1406.391290,-9844.739029,5592.497135
474.281760,-814.226536,-8734.430116,6128.763984
474.282082,-888.247130,-7105.977043,5822.325785
474.282405,-296.082377,-4663.297435,4673.182538
474.282727,666.185348,-3404.947333,3753.867940
474.283050,1924.535449,-3552.988522,2068.457845
474.283372,2368.659014,-5255.462188,1378.971896
474.283694,3627.009116,-7105.977043,689.485948
474.284017,4219.173869,-9696.697840,1302.362347
474.284339,4959.379811,-13249.686362,1378.971896
474.284662,5329.482782,-14878.139434,1378.971896
474.284984,4811.338623,-14137.933492,1838.629195
474.285307,3108.864956,-11917.315666,2298.286494
474.285629,1702.473667,-9918.759623,2068.457845
474.285952,-444.123565,-9992.780217,306.438199
474.286274,-4219.173869,-7698.141797,2451.505594
474.286597,-7624.121203,-5773.606348,4596.572988
474.286919,-9474.636058,-6587.832884,2911.162892
474.287241,-7772.162391,-10140.821405,842.705048
474.287564,-4441.235652,-11399.171507,689.485948
474.287886,-1184.329507,-10584.944971,919.314598
474.288209,2146.597232,-10510.924376,1302.362347
474.288531,6217.729913,-10807.006753,3370.820191
474.288854,9548.656652,-10510.924376,3370.820191
474.289176,9844.739029,-9178.553681,766.095498
474.289499,7994.224174,-8290.306550,2451.505594
474.289821,8216.285956,-7550.100608,2604.724693
474.290144,7920.203579,-8586.388927,-3447.429741
474.290466,6069.688724,-14285.974681,-4443.353888
474.290789,2812.782580,-16580.613101,689.485948
474.291111,-2220.617826,-12583.501014,3064.381992
474.291433,-7624.121203,-11621.233289,2221.676944
474.291756,-9696.697840,-12657.521608,689.485948
474.292078,-11473.192101,-12657.521608,-3983.696590
474.292401,-14952.160028,-8216.285956,-3830.477490
474.292723,-18653.189738,-5699.585753,2374.896044
474.293046,-16284.530724,-3923.091493,3064.381992
474.293368,-8882.471304,-6069.688724,-2987.772442
474.293691,74.020594,-7698.141797,-3370.820191
474.294013,6217.729913,-6957.935855,-2298.286494
474.294336,9252.574275,-9548.656652,-1532.190996
474.294658,12139.377449,-11325.150913,4903.011187
474.294980,12139.377449,-8734.430116,7201.297681
474.295303,7994.224174,-4219.173869,-1455.581446
474.295625,5625.565159,-6809.894666,-6358.592633
474.295948,4293.194464,-12509.480420,-3600.648841
474.296270,888.247130,-12805.562797,0.000000
474.296593,-6883.915261,-11103.089130,3983.696590
474.296915,-10955.047942,-12361.439231,7048.078582
474.297238,-10658.965565,-12583.501014,3983.696590
474.297560,-8290.306550,-11843.295072,-3524.039291
474.297883,-7550.100608,-9474.636058,-4903.011187
474.298205,-6365.771101,-6217.729913,1302.362347
474.298528,-3034.844362,-2146.597232,2987.772442
474.298850,1702.473667,-740.205942,306.438199
474.299172,5033.400406,-2516.700203,-229.828649
474.299495,5921.647536,-6291.750507,-2681.334243
474.299817,5329.482782,-10288.862594,-4060.306139
474.300140,3775.050304,-15692.365970,-1685.410096
474.300462,740.205942,-18061.024985,995.924147
474.300785,-888.247130,-17172.777854,-153.219100
474.301107,-1554.432478,-15692.365970,-2604.724693
474.301430,-1850.514855,-13619.789333,-2911.162892
474.301752,-2368.659014,-11103.089130,-2451.505594
474.302075,-2590.720797,-6439.791695,-1378.971896
474.302397,-1258.350101,-5921.647536,306.438199
474.302719,814.226536,-7624.121203,1685.410096
474.303042,2220.617826,-9326.594869,1072.533697
474.303364,3478.967927,-11325.150913,689.485948
474.303687,4219.173869,-9474.636058,842.705048
474.304009,4441.235652,-7846.182985,1072.533697
474.304332,2812.782580,-6513.812290,1915.238745
474.304654,518.144159,-6883.915261,2451.505594
474.304977,-1110.308913,-8216.285956,536.266849
474.305299,0.000000,-9400.615463,-2987.772442
474.305622,2368.659014,-10436.903782,-4213.525239
474.305944,3108.864956,-11103.089130,-2298.286494
474.306267,2072.576638,-10436.903782,459.657299
474.306589,0.000000,-12287.418637,2374.896044
474.306911,-2294.638420,-13841.851115,2068.457845
474.307234,-4071.132681,-13175.665768,-153.219100
474.307556,-6587.832884,-9992.780217,-1991.848295
474.307879,-7476.080014,-8142.265362,-2221.676944
474.308201,-5255.462188,-7105.977043,-383.047749
474.308524,-3330.926739,-6143.709319,1608.800546
474.308846,-1406.391290,-6809.894666,2681.334243
474.309169,962.267725,-8142.265362,2681.334243
474.309491,1628.453072,-6365.771101,1455.581446
474.309814,1480.411884,-4441.235652,-459.657299
474.310136,666.185348,-4293.194464,-2298.286494
474.310458,296.082377,-6809.894666,-3370.820191
474.310781,444.123565,-9770.718434,-2604.724693
474.311103,-740.205942,-11325.150913,-995.924147
474.311426,-3256.906145,-12731.542202,-153.219100
474.311748,-5625.565159,-14582.057057,-383.047749
474.312071,-5699.585753,-16284.530724,-1149.143247
474.312393,-5921.647536,-14434.015869,-1915.238745
474.312716,-3552.988522,-11621.233289,-1302.362347
474.313038,-518.144159,-8586.388927,-1608.800546
474.313361,2812.782580,-6291.750507,0.000000
474.313683,4737.318029,-4885.359217,1532.190996
474.314006,3997.112087,-5699.585753,2451.505594
474.314328,3108.864956,-8068.244768,1378.971896
474.314650,1998.556043,-9474.636058,76.609550
474.314973,1036.288319,-8364.327145,-995.924147
474.315295,962.267725,-6661.853478,-1915.238745
474.315618,2886.803174,-8734.430116,-1762.019645
474.315940,4071.132681,-10881.027347,-995.924147
474.316263,3404.947333,-11103.089130,536.266849
474.316585,962.267725,-9770.718434,-766.095498
474.316908,-888.247130,-9030.512492,-3140.991542
474.317230,-1776.494261,-11769.274478,-6205.373534
474.317553,-1850.514855,-13693.809927,-6588.421283
474.317875,-2812.782580,-12731.542202,-3524.039291
474.318197,-4589.276840,-10362.883188,0.000000
474.318520,-4811.338623,-8290.306550,766.095498
474.318842,-4145.153275,-8142.265362,-995.924147
474.319165,-3478.967927,-9252.574275,-2681.334243
474.319487,-3108.864956,-9474.636058,-1838.629195
474.319810,-1332.370696,-7772.162391,0.000000
474.320132,1628.453072,-4959.379811,76.609550
474.320455,4959.379811,-5255.462188,-612.876398
474.320777,5995.668130,-7402.059420,-612.876398
474.321100,4367.215058,-9474.636058,-306.438199
474.321422,1924.535449,-11103.089130,-1225.752797
474.321745,-370.102971,-11991.336260,-2757.943793
474.322067,-962.267725,-12065.356855,-3830.477490
474.322389,-296.082377,-11917.315666,-3447.429741
474.322712,1702.473667,-11325.150913,-2604.724693
474.323034,3034.844362,-9326.594869,-1455.581446
474.323357,3923.091493,-8364.327145,-1685.410096
474.323679,2664.741391,-6587.832884,-2911.162892
474.324002,0.000000,-7698.141797,-3907.087040
474.324324,-3108.864956,-9770.718434,-3294.210641
474.324647,-5477.523971,-10066.800811,-2528.115143
474.324969,-7179.997637,-8808.450710,-2604.724693
474.325292,-7698.141797,-7328.038826,-2528.115143
474.325614,-6291.750507,-7920.203579,-2145.067394
474.325936,-4811.338623,-9844.739029,-1072.533697
474.326259,-2960.823768,-11251.130318,383.047749
474.326581,-2146.597232,-9104.533087,0.000000
474.326904,-592.164754,-6809.894666,-2451.505594
474.327226,1776.494261,-6365.771101,-3447.429741
474.327549,3552.988522,-8660.409521,-3600.648841
474.327871,2738.761985,-10732.986159,-2451.505594
474.328194,222.061783,-12213.398043,-689.485948
474.328516,-2146.597232,-14137.933492,-229.828649
474.328839,-2294.638420,-14063.912898,-1685.410096
474.329161,-740.205942,-13027.624579,-2987.772442
474.329484,1184.329507,-9770.718434,-2145.067394
474.329806,3108.864956,-4737.318029,0.000000
474.330128,3256.906145,-962.267725,536.266849
474.330451,2960.823768,-2146.597232,76.609550
474.330773,1332.370696,-6883.915261,-995.924147
474.331096,-1776.494261,-12435.459826,-1762.019645
474.331418,-5921.647536,-14285.974681,-1455.581446
474.331741,-7920.203579,-13619.789333,-1838.629195
474.332063,-6957.935855,-13027.624579,-2298.286494
474.332386,-4145.153275,-11029.068536,-1378.971896
474.332708,-296.082377,-9474.636058,0.000000
474.333031,888.247130,-6883.915261,0.000000
474.333353,2812.782580,-5625.565159,0.000000
474.333675,4071.132681,-5181.441594,-2221.676944
474.333998,4145.153275,-7846.182985,-3140.991542
474.334320,2294.638420,-11399.171507,-766.095498
474.334643,148.041188,-12583.501014,2068.457845
474.334965,-1184.329507,-12213.398043,1685.410096
474.335288,-370.102971,-11621.233289,459.657299
474.335610,1406.391290,-9918.759623,-995.924147
474.335933,3552.988522,-7772.162391,-1608.800546
474.336255,5625.565159,-5181.441594,919.314598
474.336578,5551.544565,-3256.906145,1455.581446
474.336900,4959.379811,-3997.112087,536.266849
474.337222,2960.823768,-7402.059420,-995.924147
474.337545,-148.041188,-11399.171507,-842.705048
474.337867,-4515.256246,-14137.933492,-536.266849
474.338190,-7105.977043,-13545.768739,-2528.115143
474.338512,-7550.100608,-12065.356855,-4290.134789
474.338835,-5699.585753,-11177.109724,-4443.353888
474.339157,-3775.050304,-10658.965565,-2757.943793
474.339480,-1776.494261,-10214.842000,-153.219100
474.339802,-1332.370696,-7624.121203,766.095498
474.340125,-962.267725,-5403.503377,-1302.362347
474.340447,-370.102971,-5921.647536,-4290.134789
474.340770,0.000000,-8734.430116,-4903.011187
474.341092,-962.267725,-12435.459826,-2451.505594
474.341414,-1998.556043,-12583.501014,612.876398
474.341737,-2442.679609,-11103.089130,842.705048
474.342059,-814.226536,-9326.594869,-1149.143247
474.342382,1776.494261,-9252.574275,-3294.210641
474.342704,4293.194464,-9400.615463,-3447.429741
474.343027,4071.132681,-6883.915261,-2987.772442
474.343349,3404.947333,-6069.688724,-1762.019645
474.343672,2368.659014,-6587.832884,-1838.629195
474.343994,370.102971,-9178.553681,-2834.553343
474.344317,-2960.823768,-11843.295072,-3370.820191
474.344639,-5773.606348,-11991.336260,-4213.525239
474.344962,-7105.977043,-11843.295072,-5209.449386
474.345285,-5699.585753,-11029.068536,-4979.620737
474.345607,-3034.844362,-10955.047942,-3983.696590
474.345930,-296.082377,-11325.150913,-1608.800546
474.346252,962.267725,-8586.388927,1685.410096
474.346575,1110.308913,-6513.812290,1072.533697
474.346897,1406.391290,-5181.441594,-2681.334243
474.347220,2368.659014,-6587.832884,-4979.620737
474.347542,2220.617826,-9474.636058,-3600.648841
474.347865,592.164754,-11917.315666,306.438199
474.348187,-148.041188,-13101.645173,1455.581446
474.348510,-666.185348,-12287.418637,689.485948
474.348832,740.205942,-10436.903782,-1532.190996
474.349155,2368.659014,-8512.368333,-2757.943793
474.349477,2294.638420,-5921.647536,-2298.286494
474.349800,2368.659014,-3627.009116,-842.705048
474.350122,1998.556043,-2590.720797,-1532.190996
474.350445,1036.288319,-5255.462188,-3064.381992
474.350767,-962.267725,-10955.047942,-3907.087040
474.351090,-3923.091493,-15100.201217,-3370.820191
474.351412,-6513.812290,-16284.530724,-2681.334243
474.351735,-7772.162391,-14211.954086,-1991.848295
474.352057,-5921.647536,-12583.501014,-2757.943793
474.352380,-3552.988522,-9400.615463,-2528.115143
474.352703,-888.247130,-6069.688724,-1838.629195
474.353025,296.082377,-3701.029710,-306.438199
474.353348,1702.473667,-4515.256246,-995.924147
474.353670,2516.700203,-7698.141797,-3140.991542
474.353993,1702.473667,-11325.150913,-2451.505594
474.354315,148.041188,-13915.871710,689.485948
474.354638,-370.102971,-13175.665768,1149.143247
474.354960,74.020594,-11621.233289,-1149.143247
474.355283,2072.576638,-8660.409521,-2451.505594
474.355605,3775.050304,-7328.038826,-2604.724693
474.355928,5107.421000,-7698.141797,-2145.067394
474.356250,4959.379811,-8660.409521,-536.266849
474.356573,3552.988522,-7179.997637,919.314598
474.356895,1036.288319,-6661.853478,-612.876398
474.357218,-296.082377,-8660.409521,-3600.648841
474.357540,-2146.597232,-11769.274478,-4060.306139
474.357863,-4885.359217,-12657.521608,-2911.162892
474.358185,-7550.100608,-11325.150913,-1532.190996
474.358508,-8438.347739,-10584.944971,-1302.362347
474.358830,-7179.997637,-10362.883188,-2987.772442
474.359153,-4959.379811,-10510.924376,-2528.115143
474.359475,-3775.050304,-8586.388927,-153.219100
474.359798,-2664.741391,-6513.812290,995.924147
474.360120,-814.226536,-4737.318029,383.047749
474.360443,1702.473667,-4367.215058,-2374.896044
474.360766,2220.617826,-7698.141797,-2451.505594
474.361088,444.123565,-10807.006753,-689.485948
474.361411,-1628.453072,-12805.562797,383.047749
474.361733,-2442.679609,-13027.624579,0.000000
474.362056,-962.267725,-11325.150913,-1685.410096
474.362378,2442.679609,-9400.615463,-2528.115143
474.362701,5033.400406,-7031.956449,-2145.067394
474.363023,6883.915261,-6069.688724,-459.657299
474.363346,6143.709319,-4811.338623,306.438199
474.363668,3404.947333,-6661.853478,-919.314598
474.363991,666.185348,-10881.027347,-1608.800546
474.364313,-2146.597232,-13989.892304,-2451.505594
474.364636,-4071.132681,-13989.892304,-2298.286494
474.364958,-5107.421000,-11843.295072,-2528.115143
474.365281,-3923.091493,-9844.739029,-1915.238745
474.365603,-1184.329507,-8068.244768,-1302.362347
474.365926,1332.370696,-7624.121203,-1149.143247
474.366248,1554.432478,-7402.059420,383.047749
474.366571,-296.082377,-7476.080014,459.657299
474.366893,-814.226536,-7624.121203,-1608.800546
474.367216,444.123565,-9178.553681,-4213.525239
474.367538,1332.370696,-11547.212695,-4290.134789
474.367861,888.247130,-11991.336260,-1378.971896
474.368184,-518.144159,-10436.903782,766.095498
474.368506,-962.267725,-10140.821405,383.047749
474.368829,-296.082377,-11103.089130,-1608.800546
474.369151,666.185348,-11177.109724,-3753.867940
474.369474,296.082377,-8364.327145,-3064.381992
474.369796,1036.288319,-5921.647536,-1838.629195
474.370119,2368.659014,-3775.050304,-1762.019645
474.370441,2516.700203,-5329.482782,-2374.896044
474.370764,148.041188,-9696.697840,-1685.410096
474.371086,-3478.967927,-12953.603985,-383.047749
474.371409,-6291.750507,-13841.851115,-1302.362347
474.371731,-7105.977043,-12065.356855,-3677.258390
474.372054,-5255.462188,-9696.697840,-5209.449386
474.372376,-2294.638420,-7846.182985,-4136.915689
474.372699,1036.288319,-6735.874072,-1378.971896
474.373021,2738.761985,-5329.482782,0.000000
474.373344,2516.700203,-6143.709319,-842.705048
474.373666,1110.308913,-8364.327145,-2528.115143
474.373989,592.164754,-11695.253884,-3524.039291
474.374311,296.082377,-14359.995275,-4903.011187
474.374634,-888.247130,-13619.789333,-3064.381992
474.374956,-1776.494261,-10807.006753,-306.438199
474.375279,-962.267725,-7624.121203,0.000000
474.375601,-296.082377,-6217.729913,-1838.629195
474.375924,-222.061783,-6809.894666,-2987.772442
474.376247,-592.164754,-6957.935855,-2528.115143
474.376569,-1554.432478,-6217.729913,-2681.334243
474.376892,-1480.411884,-5995.668130,-3753.867940
474.377214,-296.082377,-8068.244768,-3907.087040
474.377537,74.020594,-10955.047942,-3064.381992
474.377859,-1702.473667,-13397.727550,-2374.896044
474.378182,-4589.276840,-13471.748144,-1991.848295
474.378504,-6513.812290,-13989.892304,-2757.943793
474.378827,-5699.585753,-13101.645173,-3983.696590
474.379149,-3552.988522,-10584.944971,-3983.696590
474.379472,-1776.494261,-8660.409521,-3907.087040
474.379794,814.226536,-6439.791695,-1225.752797
474.380117,2590.720797,-5921.647536,459.657299
474.380439,3182.885551,-6957.935855,0.000000
474.380762,2442.679609,-9918.759623,-1149.143247
474.381084,592.164754,-11917.315666,-1991.848295
474.381407,-1258.350101,-11769.274478,-1302.362347
474.381729,-1628.453072,-10362.883188,-919.314598
474.382052,0.000000,-8808.450710,-1532.190996
474.382374,2516.700203,-7994.224174,-1378.971896
474.382697,4589.276840,-6957.935855,0.000000
474.383019,5255.462188,-5995.668130,766.095498
474.383342,4293.194464,-6661.853478,-766.095498
474.383665,2516.700203,-8216.285956,-2374.896044
474.383987,1480.411884,-10584.944971,-2757.943793
474.384310,222.061783,-12213.398043,-2374.896044
474.384632,-1628.453072,-11991.336260,-612.876398
474.384955,-3701.029710,-10658.965565,153.219100
474.385277,-4367.215058,-9104.533087,612.876398
474.385600,-3256.906145,-8734.430116,-459.657299
474.385922,-1850.514855,-7698.141797,-1072.533697
474.386245,-740.205942,-5625.565159,306.438199
474.386567,370.102971,-5107.421000,1149.143247
474.386890,1036.288319,-5995.668130,459.657299
474.387212,1258.350101,-8586.388927,-919.314598
474.387535,-370.102971,-10955.047942,-1532.190996
474.387857,-2664.741391,-11399.171507,153.219100
474.388180,-4071.132681,-10584.944971,-1149.143247
474.388502,-3923.091493,-9474.636058,-3140.991542
474.388825,-2516.700203,-9548.656652,-4519.963438
474.389147,148.041188,-10732.986159,-3447.429741
474.389470,1554.432478,-10584.944971,-2374.896044
474.389792,2294.638420,-10066.800811,-2221.676944
474.390115,1184.329507,-8956.491898,-1762.019645
474.390437,222.061783,-8586.388927,-2298.286494
474.390760,-962.267725,-9918.759623,-4060.306139
474.391082,-2072.576638,-12435.459826,-4213.525239
474.391405,-3034.844362,-12879.583391,-1762.019645
474.391728,-3701.029710,-10288.862594,-459.657299
474.392050,-3330.926739,-8142.265362,-1072.533697
474.392373,-888.247130,-8142.265362,-1991.848295
474.392695,1258.350101,-8882.471304,-2374.896044
474.393018,2664.741391,-8512.368333,-1685.410096
474.393340,2220.617826,-7402.059420,-766.095498
474.393663,1924.535449,-8734.430116,-1072.533697
474.393985,1628.453072,-10214.842000,-2451.505594
474.394308,1258.350101,-11991.336260,-2911.162892
474.394630,-740.205942,-12361.439231,-2681.334243
474.394953,-2442.679609,-10732.986159,-2757.943793
474.395275,-3404.947333,-9844.739029,-2834.553343
474.395598,-2220.617826,-9178.553681,-2911.162892
474.395920,-962.267725,-9326.594869,-2451.505594
474.396243,296.082377,-9474.636058,-1685.410096
474.396565,444.123565,-6661.853478,-1225.752797
474.396888,74.020594,-4219.173869,-2068.457845
474.397210,740.205942,-5773.606348,-3983.696590
474.397533,370.102971,-9400.615463,-3753.867940
474.397855,-2146.597232,-11399.171507,-1685.410096
474.398178,-5551.544565,-11473.192101,459.657299
474.398500,-7105.977043,-10584.944971,842.705048
474.398823,-5477.523971,-9474.636058,-1685.410096
474.399146,-3182.885551,-7105.977043,-3677.258390
474.399468,740.205942,-7105.977043,-3064.381992
474.399791,3701.029710,-6069.688724,0.000000
474.400113,5773.606348,-6143.709319,1685.410096
474.400436,5995.668130,-7994.224174,306.438199
474.400758,4737.318029,-11473.192101,306.438199
474.401081,2294.638420,-13027.624579,306.438199
474.401403,-222.061783,-10807.006753,229.828649
474.401726,-518.144159,-7846.182985,-1225.752797
474.402048,1258.350101,-7031.956449,-2374.896044
474.402371,4367.215058,-7772.162391,-2145.067394
474.402693,6291.750507,-8290.306550,-612.876398
474.403016,4959.379811,-7920.203579,612.876398
474.403338,2368.659014,-8586.388927,1225.752797
474.403661,222.061783,-9474.636058,-1685.410096
474.403983,-2960.823768,-10584.944971,-4596.572988
474.404306,-5699.585753,-12213.398043,-4749.792088
474.404628,-7179.997637,-12213.398043,-3064.381992
474.404951,-7254.018232,-10955.047942,-2451.505594
474.405273,-6217.729913,-10288.862594,-2221.676944
474.405596,-5033.400406,-10807.006753,-2221.676944
474.405918,-3849.070898,-12139.377449,-1149.143247
474.406241,-2738.761985,-11991.336260,229.828649
474.406564,-1184.329507,-10140.821405,-536.266849
474.406886,592.164754,-7994.224174,-2221.676944
474.407209,1628.453072,-6883.915261,-3294.210641
474.407531,2664.741391,-8068.244768,-1455.581446
474.407854,1776.494261,-9622.677246,536.266849
474.408176,666.185348,-10732.986159,0.000000
474.408499,666.185348,-11843.295072,-1915.238745
474.408821,1406.391290,-11991.336260,-1991.848295
474.409144,1998.556043,-11251.130318,-919.314598
474.409466,2220.617826,-9844.739029,76.609550
474.409789,2220.617826,-7402.059420,842.705048
474.410111,814.226536,-3775.050304,-995.924147
474.410434,-1850.514855,-3108.864956,-3830.477490
474.410756,-4219.173869,-6661.853478,-3064.381992
474.411079,-5921.647536,-10584.944971,-2604.724693
474.411401,-6587.832884,-11547.212695,-2604.724693
474.411724,-5921.647536,-10584.944971,-2451.505594
474.412046,-4145.153275,-10881.027347,-1378.971896
474.412369,-1998.556043,-11103.089130,-612.876398
474.412691,-1702.473667,-9326.594869,153.219100
474.413014,-2146.597232,-7105.977043,1072.533697
474.413336,-1184.329507,-4589.276840,-689.485948
474.413659,1110.308913,-3478.967927,-4519.963438
474.413981,3256.906145,-6291.750507,-5822.325785
474.414304,3701.029710,-10732.986159,-1915.238745
474.414627,2812.782580,-13175.665768,2298.286494
474.414949,2146.597232,-12435.459826,1762.019645
474.415272,1110.308913,-11769.274478,-1302.362347
474.415594,1406.391290,-11103.089130,-3140.991542
474.415917,2516.700203,-9548.656652,-3753.867940
474.416239,3701.029710,-7846.182985,-2451.505594
474.416562,5107.421000,-6217.729913,-1378.971896
474.416884,6069.688724,-5699.585753,-766.095498
474.417207,5625.565159,-7994.224174,-1532.190996
474.417529,3552.988522,-11991.336260,-2451.505594
474.417852,-666.185348,-14434.015869,-2145.067394
474.418174,-4071.132681,-14359.995275,-2145.067394
474.418497,-5625.565159,-11917.315666,-2757.943793
474.418819,-5107.421000,-9844.739029,-2528.115143
474.419142,-3701.029710,-8068.244768,-689.485948
474.419464,-3330.926739,-7476.080014,-153.219100
474.419787,-2960.823768,-7550.100608,842.705048
474.420109,-1332.370696,-7920.203579,0.000000
474.420432,222.061783,-8290.306550,-3140.991542
474.420754,1036.288319,-10584.944971,-4290.134789
474.421077,370.102971,-12287.418637,-536.266849
474.421399,-1924.535449,-11103.089130,2834.553343
474.421722,-3182.885551,-7994.224174,689.485948
474.422045,-3182.885551,-7179.997637,-3217.601092
474.422367,-1258.350101,-8956.491898,-4673.182538
474.422690,1628.453072,-10140.821405,-3064.381992
474.423012,3256.906145,-8882.471304,-306.438199
474.423335,4515.256246,-7846.182985,2451.505594
474.423657,4737.318029,-7105.977043,2374.896044
474.423980,3404.947333,-7550.100608,-536.266849
474.424302,-296.082377,-9400.615463,-2681.334243
474.424625,-5551.544565,-11325.150913,-3064.381992
474.424947,-8734.430116,-11547.212695,-2298.286494
474.425270,-7772.162391,-10362.883188,-1915.238745
474.425592,-2960.823768,-9474.636058,-2221.676944
474.425915,74.020594,-9474.636058,-1225.752797
474.426237,2368.659014,-9770.718434,3064.381992
474.426560,1628.453072,-8290.306550,3753.867940
474.426882,740.205942,-7624.121203,842.705048
474.427205,370.102971,-7550.100608,-2681.334243
474.427527,148.041188,-7624.121203,-4213.525239
474.427850,-444.123565,-8216.285956,-3370.820191
474.428172,-962.267725,-9178.553681,-1685.410096
474.428495,-296.082377,-11547.212695,0.000000
474.428817,222.061783,-12583.501014,76.609550
474.429140,518.144159,-12879.583391,-306.438199
474.429462,-148.041188,-12065.356855,-919.314598
474.429785,-444.123565,-9178.553681,-1838.629195
474.430108,-1406.391290,-3997.112087,-3447.429741
474.430430,-1184.329507,-2590.720797,-4826.401637
474.430753,-962.267725,-5699.585753,-3830.477490
474.431075,-2294.638420,-10584.944971,-2604.724693
474.431398,-4811.338623,-14211.954086,-306.438199
474.431720,-6661.853478,-15322.262999,0.000000
474.432043,-6587.832884,-15396.283594,-2298.286494
474.432365,-3330.926739,-14063.912898,-3140.991542
474.432688,74.020594,-9622.677246,-2145.067394
474.433010,3182.885551,-5181.441594,-383.047749
474.433333,5625.565159,-2368.659014,0.000000
474.433655,7698.141797,-2886.803174,-842.705048
474.433978,7698.141797,-6809.894666,-2451.505594
474.434300,6365.771101,-12509.480420,-1608.800546
474.434623,3701.029710,-15248.242405,995.924147
474.434945,962.267725,-14063.912898,1455.581446
474.435268,-148.041188,-11843.295072,995.924147
474.435590,1332.370696,-10288.862594,-995.924147
474.435913,3478.967927,-7772.162391,-2911.162892
474.436235,4219.173869,-4589.276840,-2298.286494
474.436558,1924.535449,-2220.617826,-1072.533697
474.436880,148.041188,-3627.009116,-306.438199
474.437203,-1184.329507,-7328.038826,-2068.457845
474.437526,-3034.844362,-11325.150913,-3600.648841
474.437848,-6365.771101,-14211.954086,-3140.991542
474.438171,-8808.450710,-14730.098246,-1915.238745
474.438493,-9104.533087,-12805.562797,-1378.971896
474.438816,-8068.244768,-9770.718434,-3983.696590
474.439138,-5699.585753,-8068.244768,-3753.867940
474.439461,-3627.009116,-6957.935855,-2298.286494
474.439783,-666.185348,-7105.977043,0.000000
474.440106,296.082377,-5847.626942,-766.095498
474.440428,1628.453072,-7994.224174,-1378.971896
474.440751,2220.617826,-11621.233289,-1302.362347
474.441073,2072.576638,-13693.809927,-689.485948
474.441396,222.061783,-12509.480420,229.828649
474.441718,148.041188,-9252.574275,612.876398
474.442041,1924.535449,-7624.121203,-1915.238745
474.442363,5107.421000,-8142.265362,-2911.162892
474.442686,6809.894666,-9326.594869,-459.657299
474.443008,6069.688724,-8882.471304,2068.457845
474.443331,3552.988522,-7105.977043,1838.629195
474.443654,1184.329507,-6587.832884,-1455.581446
474.443976,-1998.556043,-7328.038826,-3830.477490
474.444299,-5181.441594,-8734.430116,-5669.106685
474.444621,-7772.162391,-10807.006753,-4290.134789
474.444944,-8586.388927,-11917.315666,-2834.553343
474.445266,-7476.080014,-12065.356855,-2834.553343
474.445589,-5255.462188,-12287.418637,-2987.772442
474.445912,-3108.864956,-11695.253884,-1455.581446
474.446234,-2220.617826,-9622.677246,-1149.143247
474.446557,-1332.370696,-7624.121203,-1532.190996
474.446879,222.061783,-6587.832884,-2451.505594
474.447202,444.123565,-6735.874072,-2987.772442
474.447524,1184.329507,-8956.491898,-2451.505594
474.447847,1406.391290,-11103.089130,153.219100
474.448170,1850.514855,-10732.986159,1608.800546
474.448492,2442.679609,-9400.615463,-459.657299
474.448815,4219.173869,-9104.533087,-1532.190996
474.449137,5773.606348,-9770.718434,-1685.410096
474.449460,6439.791695,-9622.677246,-153.219100
474.449782,5699.585753,-8068.244768,76.609550
474.450105,3701.029710,-6809.894666,-1302.362347
474.450428,2886.803174,-7105.977043,-3294.210641
474.450750,1702.473667,-8438.347739,-4673.182538
474.451073,-296.082377,-11695.253884,-4596.572988
474.451395,-2442.679609,-14359.995275,-2528.115143
474.451718,-4737.318029,-14434.015869,-1072.533697
474.452040,-6069.688724,-12879.583391,-1225.752797
474.452363,-5847.626942,-10658.965565,-2068.457845
474.452685,-4441.235652,-8956.491898,-2911.162892
474.453008,-3034.844362,-5921.647536,-1915.238745
474.453331,-2294.638420,-3701.029710,-842.705048
474.453653,-1184.329507,-4145.153275,76.609550
474.453976,222.061783,-7402.059420,-383.047749
474.454298,518.144159,-11769.274478,-919.314598
474.454621,-1036.288319,-13323.706956,76.609550
474.454943,-2664.741391,-11695.253884,536.266849
474.455266,-2516.700203,-8956.491898,-1302.362347
474.455589,0.000000,-6957.935855,-2987.772442
474.455911,4145.153275,-7105.977043,-2911.162892
474.456234,4441.235652,-6587.832884,-919.314598
474.456556,3701.029710,-7624.121203,383.047749
474.456879,2368.659014,-9992.780217,919.314598
474.457201,1036.288319,-11473.192101,-995.924147
474.457524,-740.205942,-11473.192101,-3140.991542
474.457847,-3182.885551,-11843.295072,-2757.943793
474.458169,-4071.132681,-9770.718434,-1608.800546
474.458492,-4737.318029,-7328.038826,-995.924147
474.458814,-4367.215058,-6661.853478,-995.924147
474.459137,-3849.070898,-8142.265362,-1225.752797
474.459459,-3108.864956,-9548.656652,-689.485948
474.459782,-2590.720797,-9252.574275,-612.876398
474.460105,-1776.494261,-8364.327145,-306.438199
